"success","timeout","failed_images","failed_audio","failed_video","trial_type","trial_index","time_elapsed","internal_node_id","exp_name","date","time","angle_mean_in","radius_mean_in","angle_sd_in","radius_sd_in","angle_min_out","angle_max_out","radius_min_out","radius_max_out","sub_n","age","race","ethnicity","gender","exp_duration","rt","response","exp_trial_type","stimulus","view_history","screen_id","angle","radius","distribution","choice","correct","order","angle_a","radius_a","angle_b","radius_b","jkl_correct","transfer_trial_type","choice_set","abc_correct","tc_correct","tc_angle","tdc_a","tdc_b","tdc_c","pair","category_a","category_b","category_c","angle_c","radius_c","question_order"
"true","false","[]","[]","[]","preload","0","141","0.0-0.0","2d_cat_multi_stim_exp1","2022-4-19","15:51:12","25","75","3","9","10","40","30","120","47","21","[""Black or African-American"",""White""]","No","Female","3638056","","","","","","","","","","","","","","","","","","","","","","","","","","","","","","","",""
"","","","","","survey-html-form","1","1703","0.0-1.0","2d_cat_multi_stim_exp1","2022-4-19","15:51:12","25","75","3","9","10","40","30","120","47","21","[""Black or African-American"",""White""]","No","Female","3638056","1512","{""response"":""47""}","enter-sub-number","","","","","","","","","","","","","","","","","","","","","","","","","","","","",""
"true","","","","","fullscreen","2","3421","0.0-2.0","2d_cat_multi_stim_exp1","2022-4-19","15:51:12","25","75","3","9","10","40","30","120","47","21","[""Black or African-American"",""White""]","No","Female","3638056","","","","","","","","","","","","","","","","","","","","","","","","","","","","","","","",""
"","","","","","image-button-response","3","1374444","0.0-3.0","2d_cat_multi_stim_exp1","2022-4-19","15:51:12","25","75","3","9","10","40","30","120","47","21","[""Black or African-American"",""White""]","No","Female","3638056","1371017","0","","consent.png","","","","","","","","","","","","","","","","","","","","","","","","","","","",""
"","","","","","html-button-response","4","1381284","0.0-4.0","2d_cat_multi_stim_exp1","2022-4-19","15:51:12","25","75","3","9","10","40","30","120","47","21","[""Black or African-American"",""White""]","No","Female","3638056","6834","0","","<div style= ""font-size:25px;"" <p> <strong> Welcome to the experiment! </strong><br> <p style=""color:#8B0000; font-size:25px;""><strong> Please do NOT exit full screen until you are done with the experiment. </strong> </p><p style=""font-size:25px;color:#8B0000;""> <strong> The experiment will be canceled and your data will be lost <br> if you try to go back or refresh the page at any point during the experiment.</strong> </p><br><p> <strong> Thanks in advance for your contribution to our research! </strong></p>","","","","","","","","","","","","","","","","","","","","","","","","","","","",""
"","","","","","instructions","5","1440587","0.0-5.0","2d_cat_multi_stim_exp1","2022-4-19","15:51:12","25","75","3","9","10","40","30","120","47","21","[""Black or African-American"",""White""]","No","Female","3638056","59299","","","","[{""page_index"":0,""viewing_time"":10091},{""page_index"":1,""viewing_time"":1873},{""page_index"":0,""viewing_time"":2480},{""page_index"":1,""viewing_time"":2639},{""page_index"":2,""viewing_time"":15992},{""page_index"":3,""viewing_time"":26224}]","instructions_1","","","","","","","","","","","","","","","","","","","","","","","","","",""
"","","","","","instructions","6","1443267","0.0-6.0","2d_cat_multi_stim_exp1","2022-4-19","15:51:12","25","75","3","9","10","40","30","120","47","21","[""Black or African-American"",""White""]","No","Female","3638056","2677","","","","[{""page_index"":0,""viewing_time"":2677}]","Click to see the kinds of turtles that will appear in the study.","","","","","","","","","","","","","","","","","","","","","","","","","",""
"","","","","","canvas-keyboard-response","7","1458289","0.0-7.0","2d_cat_multi_stim_exp1","2022-4-19","15:51:12","25","75","3","9","10","40","30","120","47","21","[""Black or African-American"",""White""]","No","Female","3638056","null","null","","","","demo_range","","","","","","","","","","","","","","","","","","","","","","","","","",""
"","","","","","instructions","8","1460962","0.0-8.0","2d_cat_multi_stim_exp1","2022-4-19","15:51:12","25","75","3","9","10","40","30","120","47","21","[""Black or African-American"",""White""]","No","Female","3638056","2174","","","","[{""page_index"":0,""viewing_time"":2173}]","Click to see some turtles in the subspecies.","","","","","","","","","","","","","","","","","","","","","","","","","",""
"","","","","","canvas-keyboard-response","9","1475983","0.0-9.0","2d_cat_multi_stim_exp1","2022-4-19","15:51:12","25","75","3","9","10","40","30","120","47","21","[""Black or African-American"",""White""]","No","Female","3638056","null","null","","","","demo_in","","","","","","","","","","","","","","","","","","","","","","","","","",""
"","","","","","instructions","10","1519243","0.0-10.0","2d_cat_multi_stim_exp1","2022-4-19","15:51:12","25","75","3","9","10","40","30","120","47","21","[""Black or African-American"",""White""]","No","Female","3638056","42758","","","","[{""page_index"":0,""viewing_time"":11245},{""page_index"":1,""viewing_time"":23625},{""page_index"":2,""viewing_time"":7888}]","instructions_2","","","","","","","","","","","","","","","","","","","","","","","","","",""
"","","","","","instructions","11","1521410","0.0-11.0","2d_cat_multi_stim_exp1","2022-4-19","15:51:12","25","75","3","9","10","40","30","120","47","21","[""Black or African-American"",""White""]","No","Female","3638056","2166","","","","[{""page_index"":0,""viewing_time"":2165}]","Click to begin the first phase of the experiment.","","","","","","","","","","","","","","","","","","","","","","","","","",""
"","","","","","canvas-keyboard-response","12","1521922","0.0-12.0-0.0","2d_cat_multi_stim_exp1","2022-4-19","15:51:12","25","75","3","9","10","40","30","120","47","21","[""Black or African-American"",""White""]","No","Female","3638056","null","null","","","","fixation","","","","","","","","","","","","","","","","","","","","","","","","","",""
"","","","","","canvas-keyboard-response","13","1522434","0.0-12.0-1.0","2d_cat_multi_stim_exp1","2022-4-19","15:51:12","25","75","3","9","10","40","30","120","47","21","[""Black or African-American"",""White""]","No","Female","3638056","null","null","","","","clear_screen","","","","","","","","","","","","","","","","","","","","","","","","","",""
"","","","","","canvas-keyboard-response","14","1528000","0.0-12.0-2.0","2d_cat_multi_stim_exp1","2022-4-19","15:51:12","25","75","3","9","10","40","30","120","47","21","[""Black or African-American"",""White""]","No","Female","3638056","5556","i","learn","","","learn_trial","20","110","out","0","1","","","","","","","","","","","","","","","","","","","","",""
"","","","","","canvas-keyboard-response","15","1528512","0.0-12.0-3.0","2d_cat_multi_stim_exp1","2022-4-19","15:51:12","25","75","3","9","10","40","30","120","47","21","[""Black or African-American"",""White""]","No","Female","3638056","null","null","learn_feedback","","","learn_feedback","20","110","out","","","","","","","","","","","","","","","","","","","","","","",""
"","","","","","canvas-keyboard-response","16","1528573","0.0-12.0-4.0","2d_cat_multi_stim_exp1","2022-4-19","15:51:12","25","75","3","9","10","40","30","120","47","21","[""Black or African-American"",""White""]","No","Female","3638056","null","null","","","","clear_screen","","","","","","","","","","","","","","","","","","","","","","","","","",""
"","","","","","canvas-keyboard-response","17","1529085","0.0-12.0-0.1","2d_cat_multi_stim_exp1","2022-4-19","15:51:12","25","75","3","9","10","40","30","120","47","21","[""Black or African-American"",""White""]","No","Female","3638056","null","null","","","","fixation","","","","","","","","","","","","","","","","","","","","","","","","","",""
"","","","","","canvas-keyboard-response","18","1529595","0.0-12.0-1.1","2d_cat_multi_stim_exp1","2022-4-19","15:51:12","25","75","3","9","10","40","30","120","47","21","[""Black or African-American"",""White""]","No","Female","3638056","null","null","","","","clear_screen","","","","","","","","","","","","","","","","","","","","","","","","","",""
"","","","","","canvas-keyboard-response","19","1531776","0.0-12.0-2.1","2d_cat_multi_stim_exp1","2022-4-19","15:51:12","25","75","3","9","10","40","30","120","47","21","[""Black or African-American"",""White""]","No","Female","3638056","2171","i","learn","","","learn_trial","40","80","out","0","1","","","","","","","","","","","","","","","","","","","","",""
"","","","","","canvas-keyboard-response","20","1532288","0.0-12.0-3.1","2d_cat_multi_stim_exp1","2022-4-19","15:51:12","25","75","3","9","10","40","30","120","47","21","[""Black or African-American"",""White""]","No","Female","3638056","null","null","learn_feedback","","","learn_feedback","40","80","out","","","","","","","","","","","","","","","","","","","","","","",""
"","","","","","canvas-keyboard-response","21","1532346","0.0-12.0-4.1","2d_cat_multi_stim_exp1","2022-4-19","15:51:12","25","75","3","9","10","40","30","120","47","21","[""Black or African-American"",""White""]","No","Female","3638056","null","null","","","","clear_screen","","","","","","","","","","","","","","","","","","","","","","","","","",""
"","","","","","canvas-keyboard-response","22","1532856","0.0-12.0-0.2","2d_cat_multi_stim_exp1","2022-4-19","15:51:12","25","75","3","9","10","40","30","120","47","21","[""Black or African-American"",""White""]","No","Female","3638056","null","null","","","","fixation","","","","","","","","","","","","","","","","","","","","","","","","","",""
"","","","","","canvas-keyboard-response","23","1533365","0.0-12.0-1.2","2d_cat_multi_stim_exp1","2022-4-19","15:51:12","25","75","3","9","10","40","30","120","47","21","[""Black or African-American"",""White""]","No","Female","3638056","null","null","","","","clear_screen","","","","","","","","","","","","","","","","","","","","","","","","","",""
"","","","","","canvas-keyboard-response","24","1534888","0.0-12.0-2.2","2d_cat_multi_stim_exp1","2022-4-19","15:51:12","25","75","3","9","10","40","30","120","47","21","[""Black or African-American"",""White""]","No","Female","3638056","1513","u","learn","","","learn_trial","26.4216","67.0746","in","1","1","","","","","","","","","","","","","","","","","","","","",""
"","","","","","canvas-keyboard-response","25","1535400","0.0-12.0-3.2","2d_cat_multi_stim_exp1","2022-4-19","15:51:12","25","75","3","9","10","40","30","120","47","21","[""Black or African-American"",""White""]","No","Female","3638056","null","null","learn_feedback","","","learn_feedback","26.4216","67.0746","in","","","","","","","","","","","","","","","","","","","","","","",""
"","","","","","canvas-keyboard-response","26","1535459","0.0-12.0-4.2","2d_cat_multi_stim_exp1","2022-4-19","15:51:12","25","75","3","9","10","40","30","120","47","21","[""Black or African-American"",""White""]","No","Female","3638056","null","null","","","","clear_screen","","","","","","","","","","","","","","","","","","","","","","","","","",""
"","","","","","canvas-keyboard-response","27","1535968","0.0-12.0-0.3","2d_cat_multi_stim_exp1","2022-4-19","15:51:12","25","75","3","9","10","40","30","120","47","21","[""Black or African-American"",""White""]","No","Female","3638056","null","null","","","","fixation","","","","","","","","","","","","","","","","","","","","","","","","","",""
"","","","","","canvas-keyboard-response","28","1536478","0.0-12.0-1.3","2d_cat_multi_stim_exp1","2022-4-19","15:51:12","25","75","3","9","10","40","30","120","47","21","[""Black or African-American"",""White""]","No","Female","3638056","null","null","","","","clear_screen","","","","","","","","","","","","","","","","","","","","","","","","","",""
"","","","","","canvas-keyboard-response","29","1538648","0.0-12.0-2.3","2d_cat_multi_stim_exp1","2022-4-19","15:51:12","25","75","3","9","10","40","30","120","47","21","[""Black or African-American"",""White""]","No","Female","3638056","2160","u","learn","","","learn_trial","25","75","in","1","1","","","","","","","","","","","","","","","","","","","","",""
"","","","","","canvas-keyboard-response","30","1539159","0.0-12.0-3.3","2d_cat_multi_stim_exp1","2022-4-19","15:51:12","25","75","3","9","10","40","30","120","47","21","[""Black or African-American"",""White""]","No","Female","3638056","null","null","learn_feedback","","","learn_feedback","25","75","in","","","","","","","","","","","","","","","","","","","","","","",""
"","","","","","canvas-keyboard-response","31","1539219","0.0-12.0-4.3","2d_cat_multi_stim_exp1","2022-4-19","15:51:12","25","75","3","9","10","40","30","120","47","21","[""Black or African-American"",""White""]","No","Female","3638056","null","null","","","","clear_screen","","","","","","","","","","","","","","","","","","","","","","","","","",""
"","","","","","canvas-keyboard-response","32","1539729","0.0-12.0-0.4","2d_cat_multi_stim_exp1","2022-4-19","15:51:12","25","75","3","9","10","40","30","120","47","21","[""Black or African-American"",""White""]","No","Female","3638056","null","null","","","","fixation","","","","","","","","","","","","","","","","","","","","","","","","","",""
"","","","","","canvas-keyboard-response","33","1540238","0.0-12.0-1.4","2d_cat_multi_stim_exp1","2022-4-19","15:51:12","25","75","3","9","10","40","30","120","47","21","[""Black or African-American"",""White""]","No","Female","3638056","null","null","","","","clear_screen","","","","","","","","","","","","","","","","","","","","","","","","","",""
"","","","","","canvas-keyboard-response","34","1541912","0.0-12.0-2.4","2d_cat_multi_stim_exp1","2022-4-19","15:51:12","25","75","3","9","10","40","30","120","47","21","[""Black or African-American"",""White""]","No","Female","3638056","1664","u","learn","","","learn_trial","22.5729","80.2901","in","1","1","","","","","","","","","","","","","","","","","","","","",""
"","","","","","canvas-keyboard-response","35","1542422","0.0-12.0-3.4","2d_cat_multi_stim_exp1","2022-4-19","15:51:12","25","75","3","9","10","40","30","120","47","21","[""Black or African-American"",""White""]","No","Female","3638056","null","null","learn_feedback","","","learn_feedback","22.5729","80.2901","in","","","","","","","","","","","","","","","","","","","","","","",""
"","","","","","canvas-keyboard-response","36","1542481","0.0-12.0-4.4","2d_cat_multi_stim_exp1","2022-4-19","15:51:12","25","75","3","9","10","40","30","120","47","21","[""Black or African-American"",""White""]","No","Female","3638056","null","null","","","","clear_screen","","","","","","","","","","","","","","","","","","","","","","","","","",""
"","","","","","canvas-keyboard-response","37","1542990","0.0-12.0-0.5","2d_cat_multi_stim_exp1","2022-4-19","15:51:12","25","75","3","9","10","40","30","120","47","21","[""Black or African-American"",""White""]","No","Female","3638056","null","null","","","","fixation","","","","","","","","","","","","","","","","","","","","","","","","","",""
"","","","","","canvas-keyboard-response","38","1543500","0.0-12.0-1.5","2d_cat_multi_stim_exp1","2022-4-19","15:51:12","25","75","3","9","10","40","30","120","47","21","[""Black or African-American"",""White""]","No","Female","3638056","null","null","","","","clear_screen","","","","","","","","","","","","","","","","","","","","","","","","","",""
"","","","","","canvas-keyboard-response","39","1546384","0.0-12.0-2.5","2d_cat_multi_stim_exp1","2022-4-19","15:51:12","25","75","3","9","10","40","30","120","47","21","[""Black or African-American"",""White""]","No","Female","3638056","2875","u","learn","","","learn_trial","25","75","in","1","1","","","","","","","","","","","","","","","","","","","","",""
"","","","","","canvas-keyboard-response","40","1546893","0.0-12.0-3.5","2d_cat_multi_stim_exp1","2022-4-19","15:51:12","25","75","3","9","10","40","30","120","47","21","[""Black or African-American"",""White""]","No","Female","3638056","null","null","learn_feedback","","","learn_feedback","25","75","in","","","","","","","","","","","","","","","","","","","","","","",""
"","","","","","canvas-keyboard-response","41","1546953","0.0-12.0-4.5","2d_cat_multi_stim_exp1","2022-4-19","15:51:12","25","75","3","9","10","40","30","120","47","21","[""Black or African-American"",""White""]","No","Female","3638056","null","null","","","","clear_screen","","","","","","","","","","","","","","","","","","","","","","","","","",""
"","","","","","canvas-keyboard-response","42","1547461","0.0-12.0-0.6","2d_cat_multi_stim_exp1","2022-4-19","15:51:12","25","75","3","9","10","40","30","120","47","21","[""Black or African-American"",""White""]","No","Female","3638056","null","null","","","","fixation","","","","","","","","","","","","","","","","","","","","","","","","","",""
"","","","","","canvas-keyboard-response","43","1547971","0.0-12.0-1.6","2d_cat_multi_stim_exp1","2022-4-19","15:51:12","25","75","3","9","10","40","30","120","47","21","[""Black or African-American"",""White""]","No","Female","3638056","null","null","","","","clear_screen","","","","","","","","","","","","","","","","","","","","","","","","","",""
"","","","","","canvas-keyboard-response","44","1549496","0.0-12.0-2.6","2d_cat_multi_stim_exp1","2022-4-19","15:51:12","25","75","3","9","10","40","30","120","47","21","[""Black or African-American"",""White""]","No","Female","3638056","1515","i","learn","","","learn_trial","13.3333","120","out","0","1","","","","","","","","","","","","","","","","","","","","",""
"","","","","","canvas-keyboard-response","45","1550009","0.0-12.0-3.6","2d_cat_multi_stim_exp1","2022-4-19","15:51:12","25","75","3","9","10","40","30","120","47","21","[""Black or African-American"",""White""]","No","Female","3638056","null","null","learn_feedback","","","learn_feedback","13.3333","120","out","","","","","","","","","","","","","","","","","","","","","","",""
"","","","","","canvas-keyboard-response","46","1550069","0.0-12.0-4.6","2d_cat_multi_stim_exp1","2022-4-19","15:51:12","25","75","3","9","10","40","30","120","47","21","[""Black or African-American"",""White""]","No","Female","3638056","null","null","","","","clear_screen","","","","","","","","","","","","","","","","","","","","","","","","","",""
"","","","","","canvas-keyboard-response","47","1550577","0.0-12.0-0.7","2d_cat_multi_stim_exp1","2022-4-19","15:51:12","25","75","3","9","10","40","30","120","47","21","[""Black or African-American"",""White""]","No","Female","3638056","null","null","","","","fixation","","","","","","","","","","","","","","","","","","","","","","","","","",""
"","","","","","canvas-keyboard-response","48","1551087","0.0-12.0-1.7","2d_cat_multi_stim_exp1","2022-4-19","15:51:12","25","75","3","9","10","40","30","120","47","21","[""Black or African-American"",""White""]","No","Female","3638056","null","null","","","","clear_screen","","","","","","","","","","","","","","","","","","","","","","","","","",""
"","","","","","canvas-keyboard-response","49","1552735","0.0-12.0-2.7","2d_cat_multi_stim_exp1","2022-4-19","15:51:12","25","75","3","9","10","40","30","120","47","21","[""Black or African-American"",""White""]","No","Female","3638056","1639","u","learn","","","learn_trial","23.3333","70","out","1","0","","","","","","","","","","","","","","","","","","","","",""
"","","","","","canvas-keyboard-response","50","1553745","0.0-12.0-3.7","2d_cat_multi_stim_exp1","2022-4-19","15:51:12","25","75","3","9","10","40","30","120","47","21","[""Black or African-American"",""White""]","No","Female","3638056","null","null","learn_feedback","","","learn_feedback","23.3333","70","out","","","","","","","","","","","","","","","","","","","","","","",""
"","","","","","canvas-keyboard-response","51","1553805","0.0-12.0-4.7","2d_cat_multi_stim_exp1","2022-4-19","15:51:12","25","75","3","9","10","40","30","120","47","21","[""Black or African-American"",""White""]","No","Female","3638056","null","null","","","","clear_screen","","","","","","","","","","","","","","","","","","","","","","","","","",""
"","","","","","canvas-keyboard-response","52","1554314","0.0-12.0-0.8","2d_cat_multi_stim_exp1","2022-4-19","15:51:12","25","75","3","9","10","40","30","120","47","21","[""Black or African-American"",""White""]","No","Female","3638056","null","null","","","","fixation","","","","","","","","","","","","","","","","","","","","","","","","","",""
"","","","","","canvas-keyboard-response","53","1554823","0.0-12.0-1.8","2d_cat_multi_stim_exp1","2022-4-19","15:51:12","25","75","3","9","10","40","30","120","47","21","[""Black or African-American"",""White""]","No","Female","3638056","null","null","","","","clear_screen","","","","","","","","","","","","","","","","","","","","","","","","","",""
"","","","","","canvas-keyboard-response","54","1557088","0.0-12.0-2.8","2d_cat_multi_stim_exp1","2022-4-19","15:51:12","25","75","3","9","10","40","30","120","47","21","[""Black or African-American"",""White""]","No","Female","3638056","2255","u","learn","","","learn_trial","25","75","in","1","1","","","","","","","","","","","","","","","","","","","","",""
"","","","","","canvas-keyboard-response","55","1557597","0.0-12.0-3.8","2d_cat_multi_stim_exp1","2022-4-19","15:51:12","25","75","3","9","10","40","30","120","47","21","[""Black or African-American"",""White""]","No","Female","3638056","null","null","learn_feedback","","","learn_feedback","25","75","in","","","","","","","","","","","","","","","","","","","","","","",""
"","","","","","canvas-keyboard-response","56","1557656","0.0-12.0-4.8","2d_cat_multi_stim_exp1","2022-4-19","15:51:12","25","75","3","9","10","40","30","120","47","21","[""Black or African-American"",""White""]","No","Female","3638056","null","null","","","","clear_screen","","","","","","","","","","","","","","","","","","","","","","","","","",""
"","","","","","canvas-keyboard-response","57","1558165","0.0-12.0-0.9","2d_cat_multi_stim_exp1","2022-4-19","15:51:12","25","75","3","9","10","40","30","120","47","21","[""Black or African-American"",""White""]","No","Female","3638056","null","null","","","","fixation","","","","","","","","","","","","","","","","","","","","","","","","","",""
"","","","","","canvas-keyboard-response","58","1558674","0.0-12.0-1.9","2d_cat_multi_stim_exp1","2022-4-19","15:51:12","25","75","3","9","10","40","30","120","47","21","[""Black or African-American"",""White""]","No","Female","3638056","null","null","","","","clear_screen","","","","","","","","","","","","","","","","","","","","","","","","","",""
"","","","","","canvas-keyboard-response","59","1560185","0.0-12.0-2.9","2d_cat_multi_stim_exp1","2022-4-19","15:51:12","25","75","3","9","10","40","30","120","47","21","[""Black or African-American"",""White""]","No","Female","3638056","1500","i","learn","","","learn_trial","20","120","out","0","1","","","","","","","","","","","","","","","","","","","","",""
"","","","","","canvas-keyboard-response","60","1560697","0.0-12.0-3.9","2d_cat_multi_stim_exp1","2022-4-19","15:51:12","25","75","3","9","10","40","30","120","47","21","[""Black or African-American"",""White""]","No","Female","3638056","null","null","learn_feedback","","","learn_feedback","20","120","out","","","","","","","","","","","","","","","","","","","","","","",""
"","","","","","canvas-keyboard-response","61","1560758","0.0-12.0-4.9","2d_cat_multi_stim_exp1","2022-4-19","15:51:12","25","75","3","9","10","40","30","120","47","21","[""Black or African-American"",""White""]","No","Female","3638056","null","null","","","","clear_screen","","","","","","","","","","","","","","","","","","","","","","","","","",""
"","","","","","canvas-keyboard-response","62","1561267","0.0-12.0-0.10","2d_cat_multi_stim_exp1","2022-4-19","15:51:12","25","75","3","9","10","40","30","120","47","21","[""Black or African-American"",""White""]","No","Female","3638056","null","null","","","","fixation","","","","","","","","","","","","","","","","","","","","","","","","","",""
"","","","","","canvas-keyboard-response","63","1561777","0.0-12.0-1.10","2d_cat_multi_stim_exp1","2022-4-19","15:51:12","25","75","3","9","10","40","30","120","47","21","[""Black or African-American"",""White""]","No","Female","3638056","null","null","","","","clear_screen","","","","","","","","","","","","","","","","","","","","","","","","","",""
"","","","","","canvas-keyboard-response","64","1563184","0.0-12.0-2.10","2d_cat_multi_stim_exp1","2022-4-19","15:51:12","25","75","3","9","10","40","30","120","47","21","[""Black or African-American"",""White""]","No","Female","3638056","1396","i","learn","","","learn_trial","36.6667","60","out","0","1","","","","","","","","","","","","","","","","","","","","",""
"","","","","","canvas-keyboard-response","65","1563696","0.0-12.0-3.10","2d_cat_multi_stim_exp1","2022-4-19","15:51:12","25","75","3","9","10","40","30","120","47","21","[""Black or African-American"",""White""]","No","Female","3638056","null","null","learn_feedback","","","learn_feedback","36.6667","60","out","","","","","","","","","","","","","","","","","","","","","","",""
"","","","","","canvas-keyboard-response","66","1563755","0.0-12.0-4.10","2d_cat_multi_stim_exp1","2022-4-19","15:51:12","25","75","3","9","10","40","30","120","47","21","[""Black or African-American"",""White""]","No","Female","3638056","null","null","","","","clear_screen","","","","","","","","","","","","","","","","","","","","","","","","","",""
"","","","","","canvas-keyboard-response","67","1564264","0.0-12.0-0.11","2d_cat_multi_stim_exp1","2022-4-19","15:51:12","25","75","3","9","10","40","30","120","47","21","[""Black or African-American"",""White""]","No","Female","3638056","null","null","","","","fixation","","","","","","","","","","","","","","","","","","","","","","","","","",""
"","","","","","canvas-keyboard-response","68","1564774","0.0-12.0-1.11","2d_cat_multi_stim_exp1","2022-4-19","15:51:12","25","75","3","9","10","40","30","120","47","21","[""Black or African-American"",""White""]","No","Female","3638056","null","null","","","","clear_screen","","","","","","","","","","","","","","","","","","","","","","","","","",""
"","","","","","canvas-keyboard-response","69","1566432","0.0-12.0-2.11","2d_cat_multi_stim_exp1","2022-4-19","15:51:12","25","75","3","9","10","40","30","120","47","21","[""Black or African-American"",""White""]","No","Female","3638056","1647","i","learn","","","learn_trial","23.3333","50","out","0","1","","","","","","","","","","","","","","","","","","","","",""
"","","","","","canvas-keyboard-response","70","1566942","0.0-12.0-3.11","2d_cat_multi_stim_exp1","2022-4-19","15:51:12","25","75","3","9","10","40","30","120","47","21","[""Black or African-American"",""White""]","No","Female","3638056","null","null","learn_feedback","","","learn_feedback","23.3333","50","out","","","","","","","","","","","","","","","","","","","","","","",""
"","","","","","canvas-keyboard-response","71","1567002","0.0-12.0-4.11","2d_cat_multi_stim_exp1","2022-4-19","15:51:12","25","75","3","9","10","40","30","120","47","21","[""Black or African-American"",""White""]","No","Female","3638056","null","null","","","","clear_screen","","","","","","","","","","","","","","","","","","","","","","","","","",""
"","","","","","canvas-keyboard-response","72","1567511","0.0-12.0-0.12","2d_cat_multi_stim_exp1","2022-4-19","15:51:12","25","75","3","9","10","40","30","120","47","21","[""Black or African-American"",""White""]","No","Female","3638056","null","null","","","","fixation","","","","","","","","","","","","","","","","","","","","","","","","","",""
"","","","","","canvas-keyboard-response","73","1568021","0.0-12.0-1.12","2d_cat_multi_stim_exp1","2022-4-19","15:51:12","25","75","3","9","10","40","30","120","47","21","[""Black or African-American"",""White""]","No","Female","3638056","null","null","","","","clear_screen","","","","","","","","","","","","","","","","","","","","","","","","","",""
"","","","","","canvas-keyboard-response","74","1569608","0.0-12.0-2.12","2d_cat_multi_stim_exp1","2022-4-19","15:51:12","25","75","3","9","10","40","30","120","47","21","[""Black or African-American"",""White""]","No","Female","3638056","1575","i","learn","","","learn_trial","36.6667","40","out","0","1","","","","","","","","","","","","","","","","","","","","",""
"","","","","","canvas-keyboard-response","75","1570119","0.0-12.0-3.12","2d_cat_multi_stim_exp1","2022-4-19","15:51:12","25","75","3","9","10","40","30","120","47","21","[""Black or African-American"",""White""]","No","Female","3638056","null","null","learn_feedback","","","learn_feedback","36.6667","40","out","","","","","","","","","","","","","","","","","","","","","","",""
"","","","","","canvas-keyboard-response","76","1570175","0.0-12.0-4.12","2d_cat_multi_stim_exp1","2022-4-19","15:51:12","25","75","3","9","10","40","30","120","47","21","[""Black or African-American"",""White""]","No","Female","3638056","null","null","","","","clear_screen","","","","","","","","","","","","","","","","","","","","","","","","","",""
"","","","","","canvas-keyboard-response","77","1570681","0.0-12.0-0.13","2d_cat_multi_stim_exp1","2022-4-19","15:51:12","25","75","3","9","10","40","30","120","47","21","[""Black or African-American"",""White""]","No","Female","3638056","null","null","","","","fixation","","","","","","","","","","","","","","","","","","","","","","","","","",""
"","","","","","canvas-keyboard-response","78","1571191","0.0-12.0-1.13","2d_cat_multi_stim_exp1","2022-4-19","15:51:12","25","75","3","9","10","40","30","120","47","21","[""Black or African-American"",""White""]","No","Female","3638056","null","null","","","","clear_screen","","","","","","","","","","","","","","","","","","","","","","","","","",""
"","","","","","canvas-keyboard-response","79","1572472","0.0-12.0-2.13","2d_cat_multi_stim_exp1","2022-4-19","15:51:12","25","75","3","9","10","40","30","120","47","21","[""Black or African-American"",""White""]","No","Female","3638056","1272","i","learn","","","learn_trial","26.6667","30","out","0","1","","","","","","","","","","","","","","","","","","","","",""
"","","","","","canvas-keyboard-response","80","1572981","0.0-12.0-3.13","2d_cat_multi_stim_exp1","2022-4-19","15:51:12","25","75","3","9","10","40","30","120","47","21","[""Black or African-American"",""White""]","No","Female","3638056","null","null","learn_feedback","","","learn_feedback","26.6667","30","out","","","","","","","","","","","","","","","","","","","","","","",""
"","","","","","canvas-keyboard-response","81","1573040","0.0-12.0-4.13","2d_cat_multi_stim_exp1","2022-4-19","15:51:12","25","75","3","9","10","40","30","120","47","21","[""Black or African-American"",""White""]","No","Female","3638056","null","null","","","","clear_screen","","","","","","","","","","","","","","","","","","","","","","","","","",""
"","","","","","canvas-keyboard-response","82","1573549","0.0-12.0-0.14","2d_cat_multi_stim_exp1","2022-4-19","15:51:12","25","75","3","9","10","40","30","120","47","21","[""Black or African-American"",""White""]","No","Female","3638056","null","null","","","","fixation","","","","","","","","","","","","","","","","","","","","","","","","","",""
"","","","","","canvas-keyboard-response","83","1574058","0.0-12.0-1.14","2d_cat_multi_stim_exp1","2022-4-19","15:51:12","25","75","3","9","10","40","30","120","47","21","[""Black or African-American"",""White""]","No","Female","3638056","null","null","","","","clear_screen","","","","","","","","","","","","","","","","","","","","","","","","","",""
"","","","","","canvas-keyboard-response","84","1576128","0.0-12.0-2.14","2d_cat_multi_stim_exp1","2022-4-19","15:51:12","25","75","3","9","10","40","30","120","47","21","[""Black or African-American"",""White""]","No","Female","3638056","2060","u","learn","","","learn_trial","25","75","in","1","1","","","","","","","","","","","","","","","","","","","","",""
"","","","","","canvas-keyboard-response","85","1576638","0.0-12.0-3.14","2d_cat_multi_stim_exp1","2022-4-19","15:51:12","25","75","3","9","10","40","30","120","47","21","[""Black or African-American"",""White""]","No","Female","3638056","null","null","learn_feedback","","","learn_feedback","25","75","in","","","","","","","","","","","","","","","","","","","","","","",""
"","","","","","canvas-keyboard-response","86","1576697","0.0-12.0-4.14","2d_cat_multi_stim_exp1","2022-4-19","15:51:12","25","75","3","9","10","40","30","120","47","21","[""Black or African-American"",""White""]","No","Female","3638056","null","null","","","","clear_screen","","","","","","","","","","","","","","","","","","","","","","","","","",""
"","","","","","canvas-keyboard-response","87","1577205","0.0-12.0-0.15","2d_cat_multi_stim_exp1","2022-4-19","15:51:12","25","75","3","9","10","40","30","120","47","21","[""Black or African-American"",""White""]","No","Female","3638056","null","null","","","","fixation","","","","","","","","","","","","","","","","","","","","","","","","","",""
"","","","","","canvas-keyboard-response","88","1577719","0.0-12.0-1.15","2d_cat_multi_stim_exp1","2022-4-19","15:51:12","25","75","3","9","10","40","30","120","47","21","[""Black or African-American"",""White""]","No","Female","3638056","null","null","","","","clear_screen","","","","","","","","","","","","","","","","","","","","","","","","","",""
"","","","","","canvas-keyboard-response","89","1579215","0.0-12.0-2.15","2d_cat_multi_stim_exp1","2022-4-19","15:51:12","25","75","3","9","10","40","30","120","47","21","[""Black or African-American"",""White""]","No","Female","3638056","1490","u","learn","","","learn_trial","26.6667","70","out","1","0","","","","","","","","","","","","","","","","","","","","",""
"","","","","","canvas-keyboard-response","90","1580225","0.0-12.0-3.15","2d_cat_multi_stim_exp1","2022-4-19","15:51:12","25","75","3","9","10","40","30","120","47","21","[""Black or African-American"",""White""]","No","Female","3638056","null","null","learn_feedback","","","learn_feedback","26.6667","70","out","","","","","","","","","","","","","","","","","","","","","","",""
"","","","","","canvas-keyboard-response","91","1580284","0.0-12.0-4.15","2d_cat_multi_stim_exp1","2022-4-19","15:51:12","25","75","3","9","10","40","30","120","47","21","[""Black or African-American"",""White""]","No","Female","3638056","null","null","","","","clear_screen","","","","","","","","","","","","","","","","","","","","","","","","","",""
"","","","","","canvas-keyboard-response","92","1580794","0.0-12.0-0.16","2d_cat_multi_stim_exp1","2022-4-19","15:51:12","25","75","3","9","10","40","30","120","47","21","[""Black or African-American"",""White""]","No","Female","3638056","null","null","","","","fixation","","","","","","","","","","","","","","","","","","","","","","","","","",""
"","","","","","canvas-keyboard-response","93","1581303","0.0-12.0-1.16","2d_cat_multi_stim_exp1","2022-4-19","15:51:12","25","75","3","9","10","40","30","120","47","21","[""Black or African-American"",""White""]","No","Female","3638056","null","null","","","","clear_screen","","","","","","","","","","","","","","","","","","","","","","","","","",""
"","","","","","canvas-keyboard-response","94","1582848","0.0-12.0-2.16","2d_cat_multi_stim_exp1","2022-4-19","15:51:12","25","75","3","9","10","40","30","120","47","21","[""Black or African-American"",""White""]","No","Female","3638056","1534","u","learn","","","learn_trial","25","75","in","1","1","","","","","","","","","","","","","","","","","","","","",""
"","","","","","canvas-keyboard-response","95","1583357","0.0-12.0-3.16","2d_cat_multi_stim_exp1","2022-4-19","15:51:12","25","75","3","9","10","40","30","120","47","21","[""Black or African-American"",""White""]","No","Female","3638056","null","null","learn_feedback","","","learn_feedback","25","75","in","","","","","","","","","","","","","","","","","","","","","","",""
"","","","","","canvas-keyboard-response","96","1583416","0.0-12.0-4.16","2d_cat_multi_stim_exp1","2022-4-19","15:51:12","25","75","3","9","10","40","30","120","47","21","[""Black or African-American"",""White""]","No","Female","3638056","null","null","","","","clear_screen","","","","","","","","","","","","","","","","","","","","","","","","","",""
"","","","","","canvas-keyboard-response","97","1583924","0.0-12.0-0.17","2d_cat_multi_stim_exp1","2022-4-19","15:51:12","25","75","3","9","10","40","30","120","47","21","[""Black or African-American"",""White""]","No","Female","3638056","null","null","","","","fixation","","","","","","","","","","","","","","","","","","","","","","","","","",""
"","","","","","canvas-keyboard-response","98","1584434","0.0-12.0-1.17","2d_cat_multi_stim_exp1","2022-4-19","15:51:12","25","75","3","9","10","40","30","120","47","21","[""Black or African-American"",""White""]","No","Female","3638056","null","null","","","","clear_screen","","","","","","","","","","","","","","","","","","","","","","","","","",""
"","","","","","canvas-keyboard-response","99","1586519","0.0-12.0-2.17","2d_cat_multi_stim_exp1","2022-4-19","15:51:12","25","75","3","9","10","40","30","120","47","21","[""Black or African-American"",""White""]","No","Female","3638056","2076","u","learn","","","learn_trial","24.3324","83.7744","in","1","1","","","","","","","","","","","","","","","","","","","","",""
"","","","","","canvas-keyboard-response","100","1587029","0.0-12.0-3.17","2d_cat_multi_stim_exp1","2022-4-19","15:51:12","25","75","3","9","10","40","30","120","47","21","[""Black or African-American"",""White""]","No","Female","3638056","null","null","learn_feedback","","","learn_feedback","24.3324","83.7744","in","","","","","","","","","","","","","","","","","","","","","","",""
"","","","","","canvas-keyboard-response","101","1587088","0.0-12.0-4.17","2d_cat_multi_stim_exp1","2022-4-19","15:51:12","25","75","3","9","10","40","30","120","47","21","[""Black or African-American"",""White""]","No","Female","3638056","null","null","","","","clear_screen","","","","","","","","","","","","","","","","","","","","","","","","","",""
"","","","","","canvas-keyboard-response","102","1587597","0.0-12.0-0.18","2d_cat_multi_stim_exp1","2022-4-19","15:51:12","25","75","3","9","10","40","30","120","47","21","[""Black or African-American"",""White""]","No","Female","3638056","null","null","","","","fixation","","","","","","","","","","","","","","","","","","","","","","","","","",""
"","","","","","canvas-keyboard-response","103","1588109","0.0-12.0-1.18","2d_cat_multi_stim_exp1","2022-4-19","15:51:12","25","75","3","9","10","40","30","120","47","21","[""Black or African-American"",""White""]","No","Female","3638056","null","null","","","","clear_screen","","","","","","","","","","","","","","","","","","","","","","","","","",""
"","","","","","canvas-keyboard-response","104","1589808","0.0-12.0-2.18","2d_cat_multi_stim_exp1","2022-4-19","15:51:12","25","75","3","9","10","40","30","120","47","21","[""Black or African-American"",""White""]","No","Female","3638056","1690","u","learn","","","learn_trial","26.8705","82.0365","in","1","1","","","","","","","","","","","","","","","","","","","","",""
"","","","","","canvas-keyboard-response","105","1590318","0.0-12.0-3.18","2d_cat_multi_stim_exp1","2022-4-19","15:51:12","25","75","3","9","10","40","30","120","47","21","[""Black or African-American"",""White""]","No","Female","3638056","null","null","learn_feedback","","","learn_feedback","26.8705","82.0365","in","","","","","","","","","","","","","","","","","","","","","","",""
"","","","","","canvas-keyboard-response","106","1590376","0.0-12.0-4.18","2d_cat_multi_stim_exp1","2022-4-19","15:51:12","25","75","3","9","10","40","30","120","47","21","[""Black or African-American"",""White""]","No","Female","3638056","null","null","","","","clear_screen","","","","","","","","","","","","","","","","","","","","","","","","","",""
"","","","","","canvas-keyboard-response","107","1590885","0.0-12.0-0.19","2d_cat_multi_stim_exp1","2022-4-19","15:51:12","25","75","3","9","10","40","30","120","47","21","[""Black or African-American"",""White""]","No","Female","3638056","null","null","","","","fixation","","","","","","","","","","","","","","","","","","","","","","","","","",""
"","","","","","canvas-keyboard-response","108","1591395","0.0-12.0-1.19","2d_cat_multi_stim_exp1","2022-4-19","15:51:12","25","75","3","9","10","40","30","120","47","21","[""Black or African-American"",""White""]","No","Female","3638056","null","null","","","","clear_screen","","","","","","","","","","","","","","","","","","","","","","","","","",""
"","","","","","canvas-keyboard-response","109","1592167","0.0-12.0-2.19","2d_cat_multi_stim_exp1","2022-4-19","15:51:12","25","75","3","9","10","40","30","120","47","21","[""Black or African-American"",""White""]","No","Female","3638056","764","i","learn","","","learn_trial","10","60","out","0","1","","","","","","","","","","","","","","","","","","","","",""
"","","","","","canvas-keyboard-response","110","1592681","0.0-12.0-3.19","2d_cat_multi_stim_exp1","2022-4-19","15:51:12","25","75","3","9","10","40","30","120","47","21","[""Black or African-American"",""White""]","No","Female","3638056","null","null","learn_feedback","","","learn_feedback","10","60","out","","","","","","","","","","","","","","","","","","","","","","",""
"","","","","","canvas-keyboard-response","111","1592739","0.0-12.0-4.19","2d_cat_multi_stim_exp1","2022-4-19","15:51:12","25","75","3","9","10","40","30","120","47","21","[""Black or African-American"",""White""]","No","Female","3638056","null","null","","","","clear_screen","","","","","","","","","","","","","","","","","","","","","","","","","",""
"","","","","","canvas-keyboard-response","112","1593249","0.0-12.0-0.20","2d_cat_multi_stim_exp1","2022-4-19","15:51:12","25","75","3","9","10","40","30","120","47","21","[""Black or African-American"",""White""]","No","Female","3638056","null","null","","","","fixation","","","","","","","","","","","","","","","","","","","","","","","","","",""
"","","","","","canvas-keyboard-response","113","1593758","0.0-12.0-1.20","2d_cat_multi_stim_exp1","2022-4-19","15:51:12","25","75","3","9","10","40","30","120","47","21","[""Black or African-American"",""White""]","No","Female","3638056","null","null","","","","clear_screen","","","","","","","","","","","","","","","","","","","","","","","","","",""
"","","","","","canvas-keyboard-response","114","1596296","0.0-12.0-2.20","2d_cat_multi_stim_exp1","2022-4-19","15:51:12","25","75","3","9","10","40","30","120","47","21","[""Black or African-American"",""White""]","No","Female","3638056","2528","u","learn","","","learn_trial","30","120","out","1","0","","","","","","","","","","","","","","","","","","","","",""
"","","","","","canvas-keyboard-response","115","1597306","0.0-12.0-3.20","2d_cat_multi_stim_exp1","2022-4-19","15:51:12","25","75","3","9","10","40","30","120","47","21","[""Black or African-American"",""White""]","No","Female","3638056","null","null","learn_feedback","","","learn_feedback","30","120","out","","","","","","","","","","","","","","","","","","","","","","",""
"","","","","","canvas-keyboard-response","116","1597365","0.0-12.0-4.20","2d_cat_multi_stim_exp1","2022-4-19","15:51:12","25","75","3","9","10","40","30","120","47","21","[""Black or African-American"",""White""]","No","Female","3638056","null","null","","","","clear_screen","","","","","","","","","","","","","","","","","","","","","","","","","",""
"","","","","","canvas-keyboard-response","117","1597873","0.0-12.0-0.21","2d_cat_multi_stim_exp1","2022-4-19","15:51:12","25","75","3","9","10","40","30","120","47","21","[""Black or African-American"",""White""]","No","Female","3638056","null","null","","","","fixation","","","","","","","","","","","","","","","","","","","","","","","","","",""
"","","","","","canvas-keyboard-response","118","1598384","0.0-12.0-1.21","2d_cat_multi_stim_exp1","2022-4-19","15:51:12","25","75","3","9","10","40","30","120","47","21","[""Black or African-American"",""White""]","No","Female","3638056","null","null","","","","clear_screen","","","","","","","","","","","","","","","","","","","","","","","","","",""
"","","","","","canvas-keyboard-response","119","1599415","0.0-12.0-2.21","2d_cat_multi_stim_exp1","2022-4-19","15:51:12","25","75","3","9","10","40","30","120","47","21","[""Black or African-American"",""White""]","No","Female","3638056","1022","i","learn","","","learn_trial","40","50","out","0","1","","","","","","","","","","","","","","","","","","","","",""
"","","","","","canvas-keyboard-response","120","1599925","0.0-12.0-3.21","2d_cat_multi_stim_exp1","2022-4-19","15:51:12","25","75","3","9","10","40","30","120","47","21","[""Black or African-American"",""White""]","No","Female","3638056","null","null","learn_feedback","","","learn_feedback","40","50","out","","","","","","","","","","","","","","","","","","","","","","",""
"","","","","","canvas-keyboard-response","121","1599983","0.0-12.0-4.21","2d_cat_multi_stim_exp1","2022-4-19","15:51:12","25","75","3","9","10","40","30","120","47","21","[""Black or African-American"",""White""]","No","Female","3638056","null","null","","","","clear_screen","","","","","","","","","","","","","","","","","","","","","","","","","",""
"","","","","","canvas-keyboard-response","122","1600493","0.0-12.0-0.22","2d_cat_multi_stim_exp1","2022-4-19","15:51:12","25","75","3","9","10","40","30","120","47","21","[""Black or African-American"",""White""]","No","Female","3638056","null","null","","","","fixation","","","","","","","","","","","","","","","","","","","","","","","","","",""
"","","","","","canvas-keyboard-response","123","1601003","0.0-12.0-1.22","2d_cat_multi_stim_exp1","2022-4-19","15:51:12","25","75","3","9","10","40","30","120","47","21","[""Black or African-American"",""White""]","No","Female","3638056","null","null","","","","clear_screen","","","","","","","","","","","","","","","","","","","","","","","","","",""
"","","","","","canvas-keyboard-response","124","1603215","0.0-12.0-2.22","2d_cat_multi_stim_exp1","2022-4-19","15:51:12","25","75","3","9","10","40","30","120","47","21","[""Black or African-American"",""White""]","No","Female","3638056","2203","i","learn","","","learn_trial","23.3333","40","out","0","1","","","","","","","","","","","","","","","","","","","","",""
"","","","","","canvas-keyboard-response","125","1603727","0.0-12.0-3.22","2d_cat_multi_stim_exp1","2022-4-19","15:51:12","25","75","3","9","10","40","30","120","47","21","[""Black or African-American"",""White""]","No","Female","3638056","null","null","learn_feedback","","","learn_feedback","23.3333","40","out","","","","","","","","","","","","","","","","","","","","","","",""
"","","","","","canvas-keyboard-response","126","1603787","0.0-12.0-4.22","2d_cat_multi_stim_exp1","2022-4-19","15:51:12","25","75","3","9","10","40","30","120","47","21","[""Black or African-American"",""White""]","No","Female","3638056","null","null","","","","clear_screen","","","","","","","","","","","","","","","","","","","","","","","","","",""
"","","","","","canvas-keyboard-response","127","1604295","0.0-12.0-0.23","2d_cat_multi_stim_exp1","2022-4-19","15:51:12","25","75","3","9","10","40","30","120","47","21","[""Black or African-American"",""White""]","No","Female","3638056","null","null","","","","fixation","","","","","","","","","","","","","","","","","","","","","","","","","",""
"","","","","","canvas-keyboard-response","128","1604804","0.0-12.0-1.23","2d_cat_multi_stim_exp1","2022-4-19","15:51:12","25","75","3","9","10","40","30","120","47","21","[""Black or African-American"",""White""]","No","Female","3638056","null","null","","","","clear_screen","","","","","","","","","","","","","","","","","","","","","","","","","",""
"","","","","","canvas-keyboard-response","129","1606487","0.0-12.0-2.23","2d_cat_multi_stim_exp1","2022-4-19","15:51:12","25","75","3","9","10","40","30","120","47","21","[""Black or African-American"",""White""]","No","Female","3638056","1675","i","learn","","","learn_trial","33.3333","90","out","0","1","","","","","","","","","","","","","","","","","","","","",""
"","","","","","canvas-keyboard-response","130","1606997","0.0-12.0-3.23","2d_cat_multi_stim_exp1","2022-4-19","15:51:12","25","75","3","9","10","40","30","120","47","21","[""Black or African-American"",""White""]","No","Female","3638056","null","null","learn_feedback","","","learn_feedback","33.3333","90","out","","","","","","","","","","","","","","","","","","","","","","",""
"","","","","","canvas-keyboard-response","131","1607056","0.0-12.0-4.23","2d_cat_multi_stim_exp1","2022-4-19","15:51:12","25","75","3","9","10","40","30","120","47","21","[""Black or African-American"",""White""]","No","Female","3638056","null","null","","","","clear_screen","","","","","","","","","","","","","","","","","","","","","","","","","",""
"","","","","","canvas-keyboard-response","132","1607565","0.0-12.0-0.24","2d_cat_multi_stim_exp1","2022-4-19","15:51:12","25","75","3","9","10","40","30","120","47","21","[""Black or African-American"",""White""]","No","Female","3638056","null","null","","","","fixation","","","","","","","","","","","","","","","","","","","","","","","","","",""
"","","","","","canvas-keyboard-response","133","1608074","0.0-12.0-1.24","2d_cat_multi_stim_exp1","2022-4-19","15:51:12","25","75","3","9","10","40","30","120","47","21","[""Black or African-American"",""White""]","No","Female","3638056","null","null","","","","clear_screen","","","","","","","","","","","","","","","","","","","","","","","","","",""
"","","","","","canvas-keyboard-response","134","1609240","0.0-12.0-2.24","2d_cat_multi_stim_exp1","2022-4-19","15:51:12","25","75","3","9","10","40","30","120","47","21","[""Black or African-American"",""White""]","No","Female","3638056","1156","i","learn","","","learn_trial","10","50","out","0","1","","","","","","","","","","","","","","","","","","","","",""
"","","","","","canvas-keyboard-response","135","1609748","0.0-12.0-3.24","2d_cat_multi_stim_exp1","2022-4-19","15:51:12","25","75","3","9","10","40","30","120","47","21","[""Black or African-American"",""White""]","No","Female","3638056","null","null","learn_feedback","","","learn_feedback","10","50","out","","","","","","","","","","","","","","","","","","","","","","",""
"","","","","","canvas-keyboard-response","136","1609807","0.0-12.0-4.24","2d_cat_multi_stim_exp1","2022-4-19","15:51:12","25","75","3","9","10","40","30","120","47","21","[""Black or African-American"",""White""]","No","Female","3638056","null","null","","","","clear_screen","","","","","","","","","","","","","","","","","","","","","","","","","",""
"","","","","","canvas-keyboard-response","137","1610315","0.0-12.0-0.25","2d_cat_multi_stim_exp1","2022-4-19","15:51:12","25","75","3","9","10","40","30","120","47","21","[""Black or African-American"",""White""]","No","Female","3638056","null","null","","","","fixation","","","","","","","","","","","","","","","","","","","","","","","","","",""
"","","","","","canvas-keyboard-response","138","1610826","0.0-12.0-1.25","2d_cat_multi_stim_exp1","2022-4-19","15:51:12","25","75","3","9","10","40","30","120","47","21","[""Black or African-American"",""White""]","No","Female","3638056","null","null","","","","clear_screen","","","","","","","","","","","","","","","","","","","","","","","","","",""
"","","","","","canvas-keyboard-response","139","1612759","0.0-12.0-2.25","2d_cat_multi_stim_exp1","2022-4-19","15:51:12","25","75","3","9","10","40","30","120","47","21","[""Black or African-American"",""White""]","No","Female","3638056","1924","u","learn","","","learn_trial","25","75","in","1","1","","","","","","","","","","","","","","","","","","","","",""
"","","","","","canvas-keyboard-response","140","1613271","0.0-12.0-3.25","2d_cat_multi_stim_exp1","2022-4-19","15:51:12","25","75","3","9","10","40","30","120","47","21","[""Black or African-American"",""White""]","No","Female","3638056","null","null","learn_feedback","","","learn_feedback","25","75","in","","","","","","","","","","","","","","","","","","","","","","",""
"","","","","","canvas-keyboard-response","141","1613333","0.0-12.0-4.25","2d_cat_multi_stim_exp1","2022-4-19","15:51:12","25","75","3","9","10","40","30","120","47","21","[""Black or African-American"",""White""]","No","Female","3638056","null","null","","","","clear_screen","","","","","","","","","","","","","","","","","","","","","","","","","",""
"","","","","","canvas-keyboard-response","142","1613844","0.0-12.0-0.26","2d_cat_multi_stim_exp1","2022-4-19","15:51:12","25","75","3","9","10","40","30","120","47","21","[""Black or African-American"",""White""]","No","Female","3638056","null","null","","","","fixation","","","","","","","","","","","","","","","","","","","","","","","","","",""
"","","","","","canvas-keyboard-response","143","1614355","0.0-12.0-1.26","2d_cat_multi_stim_exp1","2022-4-19","15:51:12","25","75","3","9","10","40","30","120","47","21","[""Black or African-American"",""White""]","No","Female","3638056","null","null","","","","clear_screen","","","","","","","","","","","","","","","","","","","","","","","","","",""
"","","","","","canvas-keyboard-response","144","1615656","0.0-12.0-2.26","2d_cat_multi_stim_exp1","2022-4-19","15:51:12","25","75","3","9","10","40","30","120","47","21","[""Black or African-American"",""White""]","No","Female","3638056","1290","i","learn","","","learn_trial","36.6667","100","out","0","1","","","","","","","","","","","","","","","","","","","","",""
"","","","","","canvas-keyboard-response","145","1616165","0.0-12.0-3.26","2d_cat_multi_stim_exp1","2022-4-19","15:51:12","25","75","3","9","10","40","30","120","47","21","[""Black or African-American"",""White""]","No","Female","3638056","null","null","learn_feedback","","","learn_feedback","36.6667","100","out","","","","","","","","","","","","","","","","","","","","","","",""
"","","","","","canvas-keyboard-response","146","1616225","0.0-12.0-4.26","2d_cat_multi_stim_exp1","2022-4-19","15:51:12","25","75","3","9","10","40","30","120","47","21","[""Black or African-American"",""White""]","No","Female","3638056","null","null","","","","clear_screen","","","","","","","","","","","","","","","","","","","","","","","","","",""
"","","","","","canvas-keyboard-response","147","1616734","0.0-12.0-0.27","2d_cat_multi_stim_exp1","2022-4-19","15:51:12","25","75","3","9","10","40","30","120","47","21","[""Black or African-American"",""White""]","No","Female","3638056","null","null","","","","fixation","","","","","","","","","","","","","","","","","","","","","","","","","",""
"","","","","","canvas-keyboard-response","148","1617244","0.0-12.0-1.27","2d_cat_multi_stim_exp1","2022-4-19","15:51:12","25","75","3","9","10","40","30","120","47","21","[""Black or African-American"",""White""]","No","Female","3638056","null","null","","","","clear_screen","","","","","","","","","","","","","","","","","","","","","","","","","",""
"","","","","","canvas-keyboard-response","149","1618648","0.0-12.0-2.27","2d_cat_multi_stim_exp1","2022-4-19","15:51:12","25","75","3","9","10","40","30","120","47","21","[""Black or African-American"",""White""]","No","Female","3638056","1393","i","learn","","","learn_trial","10","120","out","0","1","","","","","","","","","","","","","","","","","","","","",""
"","","","","","canvas-keyboard-response","150","1619159","0.0-12.0-3.27","2d_cat_multi_stim_exp1","2022-4-19","15:51:12","25","75","3","9","10","40","30","120","47","21","[""Black or African-American"",""White""]","No","Female","3638056","null","null","learn_feedback","","","learn_feedback","10","120","out","","","","","","","","","","","","","","","","","","","","","","",""
"","","","","","canvas-keyboard-response","151","1619219","0.0-12.0-4.27","2d_cat_multi_stim_exp1","2022-4-19","15:51:12","25","75","3","9","10","40","30","120","47","21","[""Black or African-American"",""White""]","No","Female","3638056","null","null","","","","clear_screen","","","","","","","","","","","","","","","","","","","","","","","","","",""
"","","","","","canvas-keyboard-response","152","1619728","0.0-12.0-0.28","2d_cat_multi_stim_exp1","2022-4-19","15:51:12","25","75","3","9","10","40","30","120","47","21","[""Black or African-American"",""White""]","No","Female","3638056","null","null","","","","fixation","","","","","","","","","","","","","","","","","","","","","","","","","",""
"","","","","","canvas-keyboard-response","153","1620238","0.0-12.0-1.28","2d_cat_multi_stim_exp1","2022-4-19","15:51:12","25","75","3","9","10","40","30","120","47","21","[""Black or African-American"",""White""]","No","Female","3638056","null","null","","","","clear_screen","","","","","","","","","","","","","","","","","","","","","","","","","",""
"","","","","","canvas-keyboard-response","154","1621480","0.0-12.0-2.28","2d_cat_multi_stim_exp1","2022-4-19","15:51:12","25","75","3","9","10","40","30","120","47","21","[""Black or African-American"",""White""]","No","Female","3638056","1232","i","learn","","","learn_trial","10","80","out","0","1","","","","","","","","","","","","","","","","","","","","",""
"","","","","","canvas-keyboard-response","155","1621990","0.0-12.0-3.28","2d_cat_multi_stim_exp1","2022-4-19","15:51:12","25","75","3","9","10","40","30","120","47","21","[""Black or African-American"",""White""]","No","Female","3638056","null","null","learn_feedback","","","learn_feedback","10","80","out","","","","","","","","","","","","","","","","","","","","","","",""
"","","","","","canvas-keyboard-response","156","1622049","0.0-12.0-4.28","2d_cat_multi_stim_exp1","2022-4-19","15:51:12","25","75","3","9","10","40","30","120","47","21","[""Black or African-American"",""White""]","No","Female","3638056","null","null","","","","clear_screen","","","","","","","","","","","","","","","","","","","","","","","","","",""
"","","","","","canvas-keyboard-response","157","1622561","0.0-12.0-0.29","2d_cat_multi_stim_exp1","2022-4-19","15:51:12","25","75","3","9","10","40","30","120","47","21","[""Black or African-American"",""White""]","No","Female","3638056","null","null","","","","fixation","","","","","","","","","","","","","","","","","","","","","","","","","",""
"","","","","","canvas-keyboard-response","158","1623070","0.0-12.0-1.29","2d_cat_multi_stim_exp1","2022-4-19","15:51:12","25","75","3","9","10","40","30","120","47","21","[""Black or African-American"",""White""]","No","Female","3638056","null","null","","","","clear_screen","","","","","","","","","","","","","","","","","","","","","","","","","",""
"","","","","","canvas-keyboard-response","159","1624567","0.0-12.0-2.29","2d_cat_multi_stim_exp1","2022-4-19","15:51:12","25","75","3","9","10","40","30","120","47","21","[""Black or African-American"",""White""]","No","Female","3638056","1488","u","learn","","","learn_trial","25.4027","66.0815","in","1","1","","","","","","","","","","","","","","","","","","","","",""
"","","","","","canvas-keyboard-response","160","1625078","0.0-12.0-3.29","2d_cat_multi_stim_exp1","2022-4-19","15:51:12","25","75","3","9","10","40","30","120","47","21","[""Black or African-American"",""White""]","No","Female","3638056","null","null","learn_feedback","","","learn_feedback","25.4027","66.0815","in","","","","","","","","","","","","","","","","","","","","","","",""
"","","","","","canvas-keyboard-response","161","1625137","0.0-12.0-4.29","2d_cat_multi_stim_exp1","2022-4-19","15:51:12","25","75","3","9","10","40","30","120","47","21","[""Black or African-American"",""White""]","No","Female","3638056","null","null","","","","clear_screen","","","","","","","","","","","","","","","","","","","","","","","","","",""
"","","","","","canvas-keyboard-response","162","1625646","0.0-12.0-0.30","2d_cat_multi_stim_exp1","2022-4-19","15:51:12","25","75","3","9","10","40","30","120","47","21","[""Black or African-American"",""White""]","No","Female","3638056","null","null","","","","fixation","","","","","","","","","","","","","","","","","","","","","","","","","",""
"","","","","","canvas-keyboard-response","163","1626155","0.0-12.0-1.30","2d_cat_multi_stim_exp1","2022-4-19","15:51:12","25","75","3","9","10","40","30","120","47","21","[""Black or African-American"",""White""]","No","Female","3638056","null","null","","","","clear_screen","","","","","","","","","","","","","","","","","","","","","","","","","",""
"","","","","","canvas-keyboard-response","164","1628335","0.0-12.0-2.30","2d_cat_multi_stim_exp1","2022-4-19","15:51:12","25","75","3","9","10","40","30","120","47","21","[""Black or African-American"",""White""]","No","Female","3638056","2171","i","learn","","","learn_trial","20","40","out","0","1","","","","","","","","","","","","","","","","","","","","",""
"","","","","","canvas-keyboard-response","165","1628845","0.0-12.0-3.30","2d_cat_multi_stim_exp1","2022-4-19","15:51:12","25","75","3","9","10","40","30","120","47","21","[""Black or African-American"",""White""]","No","Female","3638056","null","null","learn_feedback","","","learn_feedback","20","40","out","","","","","","","","","","","","","","","","","","","","","","",""
"","","","","","canvas-keyboard-response","166","1628905","0.0-12.0-4.30","2d_cat_multi_stim_exp1","2022-4-19","15:51:12","25","75","3","9","10","40","30","120","47","21","[""Black or African-American"",""White""]","No","Female","3638056","null","null","","","","clear_screen","","","","","","","","","","","","","","","","","","","","","","","","","",""
"","","","","","canvas-keyboard-response","167","1629414","0.0-12.0-0.31","2d_cat_multi_stim_exp1","2022-4-19","15:51:12","25","75","3","9","10","40","30","120","47","21","[""Black or African-American"",""White""]","No","Female","3638056","null","null","","","","fixation","","","","","","","","","","","","","","","","","","","","","","","","","",""
"","","","","","canvas-keyboard-response","168","1629923","0.0-12.0-1.31","2d_cat_multi_stim_exp1","2022-4-19","15:51:12","25","75","3","9","10","40","30","120","47","21","[""Black or African-American"",""White""]","No","Female","3638056","null","null","","","","clear_screen","","","","","","","","","","","","","","","","","","","","","","","","","",""
"","","","","","canvas-keyboard-response","169","1631088","0.0-12.0-2.31","2d_cat_multi_stim_exp1","2022-4-19","15:51:12","25","75","3","9","10","40","30","120","47","21","[""Black or African-American"",""White""]","No","Female","3638056","1153","u","learn","","","learn_trial","26.6667","90","out","1","0","","","","","","","","","","","","","","","","","","","","",""
"","","","","","canvas-keyboard-response","170","1632097","0.0-12.0-3.31","2d_cat_multi_stim_exp1","2022-4-19","15:51:12","25","75","3","9","10","40","30","120","47","21","[""Black or African-American"",""White""]","No","Female","3638056","null","null","learn_feedback","","","learn_feedback","26.6667","90","out","","","","","","","","","","","","","","","","","","","","","","",""
"","","","","","canvas-keyboard-response","171","1632156","0.0-12.0-4.31","2d_cat_multi_stim_exp1","2022-4-19","15:51:12","25","75","3","9","10","40","30","120","47","21","[""Black or African-American"",""White""]","No","Female","3638056","null","null","","","","clear_screen","","","","","","","","","","","","","","","","","","","","","","","","","",""
"","","","","","canvas-keyboard-response","172","1632667","0.0-12.0-0.32","2d_cat_multi_stim_exp1","2022-4-19","15:51:12","25","75","3","9","10","40","30","120","47","21","[""Black or African-American"",""White""]","No","Female","3638056","null","null","","","","fixation","","","","","","","","","","","","","","","","","","","","","","","","","",""
"","","","","","canvas-keyboard-response","173","1633177","0.0-12.0-1.32","2d_cat_multi_stim_exp1","2022-4-19","15:51:12","25","75","3","9","10","40","30","120","47","21","[""Black or African-American"",""White""]","No","Female","3638056","null","null","","","","clear_screen","","","","","","","","","","","","","","","","","","","","","","","","","",""
"","","","","","canvas-keyboard-response","174","1634991","0.0-12.0-2.32","2d_cat_multi_stim_exp1","2022-4-19","15:51:12","25","75","3","9","10","40","30","120","47","21","[""Black or African-American"",""White""]","No","Female","3638056","1804","u","learn","","","learn_trial","25","75","in","1","1","","","","","","","","","","","","","","","","","","","","",""
"","","","","","canvas-keyboard-response","175","1635501","0.0-12.0-3.32","2d_cat_multi_stim_exp1","2022-4-19","15:51:12","25","75","3","9","10","40","30","120","47","21","[""Black or African-American"",""White""]","No","Female","3638056","null","null","learn_feedback","","","learn_feedback","25","75","in","","","","","","","","","","","","","","","","","","","","","","",""
"","","","","","canvas-keyboard-response","176","1635560","0.0-12.0-4.32","2d_cat_multi_stim_exp1","2022-4-19","15:51:12","25","75","3","9","10","40","30","120","47","21","[""Black or African-American"",""White""]","No","Female","3638056","null","null","","","","clear_screen","","","","","","","","","","","","","","","","","","","","","","","","","",""
"","","","","","canvas-keyboard-response","177","1636069","0.0-12.0-0.33","2d_cat_multi_stim_exp1","2022-4-19","15:51:12","25","75","3","9","10","40","30","120","47","21","[""Black or African-American"",""White""]","No","Female","3638056","null","null","","","","fixation","","","","","","","","","","","","","","","","","","","","","","","","","",""
"","","","","","canvas-keyboard-response","178","1636579","0.0-12.0-1.33","2d_cat_multi_stim_exp1","2022-4-19","15:51:12","25","75","3","9","10","40","30","120","47","21","[""Black or African-American"",""White""]","No","Female","3638056","null","null","","","","clear_screen","","","","","","","","","","","","","","","","","","","","","","","","","",""
"","","","","","canvas-keyboard-response","179","1637976","0.0-12.0-2.33","2d_cat_multi_stim_exp1","2022-4-19","15:51:12","25","75","3","9","10","40","30","120","47","21","[""Black or African-American"",""White""]","No","Female","3638056","1386","u","learn","","","learn_trial","22.9268","68.4948","in","1","1","","","","","","","","","","","","","","","","","","","","",""
"","","","","","canvas-keyboard-response","180","1638485","0.0-12.0-3.33","2d_cat_multi_stim_exp1","2022-4-19","15:51:12","25","75","3","9","10","40","30","120","47","21","[""Black or African-American"",""White""]","No","Female","3638056","null","null","learn_feedback","","","learn_feedback","22.9268","68.4948","in","","","","","","","","","","","","","","","","","","","","","","",""
"","","","","","canvas-keyboard-response","181","1638544","0.0-12.0-4.33","2d_cat_multi_stim_exp1","2022-4-19","15:51:12","25","75","3","9","10","40","30","120","47","21","[""Black or African-American"",""White""]","No","Female","3638056","null","null","","","","clear_screen","","","","","","","","","","","","","","","","","","","","","","","","","",""
"","","","","","canvas-keyboard-response","182","1639053","0.0-12.0-0.34","2d_cat_multi_stim_exp1","2022-4-19","15:51:12","25","75","3","9","10","40","30","120","47","21","[""Black or African-American"",""White""]","No","Female","3638056","null","null","","","","fixation","","","","","","","","","","","","","","","","","","","","","","","","","",""
"","","","","","canvas-keyboard-response","183","1639562","0.0-12.0-1.34","2d_cat_multi_stim_exp1","2022-4-19","15:51:12","25","75","3","9","10","40","30","120","47","21","[""Black or African-American"",""White""]","No","Female","3638056","null","null","","","","clear_screen","","","","","","","","","","","","","","","","","","","","","","","","","",""
"","","","","","canvas-keyboard-response","184","1643399","0.0-12.0-2.34","2d_cat_multi_stim_exp1","2022-4-19","15:51:12","25","75","3","9","10","40","30","120","47","21","[""Black or African-American"",""White""]","No","Female","3638056","3827","i","learn","","","learn_trial","20","30","out","0","1","","","","","","","","","","","","","","","","","","","","",""
"","","","","","canvas-keyboard-response","185","1643908","0.0-12.0-3.34","2d_cat_multi_stim_exp1","2022-4-19","15:51:12","25","75","3","9","10","40","30","120","47","21","[""Black or African-American"",""White""]","No","Female","3638056","null","null","learn_feedback","","","learn_feedback","20","30","out","","","","","","","","","","","","","","","","","","","","","","",""
"","","","","","canvas-keyboard-response","186","1643966","0.0-12.0-4.34","2d_cat_multi_stim_exp1","2022-4-19","15:51:12","25","75","3","9","10","40","30","120","47","21","[""Black or African-American"",""White""]","No","Female","3638056","null","null","","","","clear_screen","","","","","","","","","","","","","","","","","","","","","","","","","",""
"","","","","","canvas-keyboard-response","187","1644479","0.0-12.0-0.35","2d_cat_multi_stim_exp1","2022-4-19","15:51:12","25","75","3","9","10","40","30","120","47","21","[""Black or African-American"",""White""]","No","Female","3638056","null","null","","","","fixation","","","","","","","","","","","","","","","","","","","","","","","","","",""
"","","","","","canvas-keyboard-response","188","1644989","0.0-12.0-1.35","2d_cat_multi_stim_exp1","2022-4-19","15:51:12","25","75","3","9","10","40","30","120","47","21","[""Black or African-American"",""White""]","No","Female","3638056","null","null","","","","clear_screen","","","","","","","","","","","","","","","","","","","","","","","","","",""
"","","","","","canvas-keyboard-response","189","1648215","0.0-12.0-2.35","2d_cat_multi_stim_exp1","2022-4-19","15:51:12","25","75","3","9","10","40","30","120","47","21","[""Black or African-American"",""White""]","No","Female","3638056","3217","u","learn","","","learn_trial","25","75","in","1","1","","","","","","","","","","","","","","","","","","","","",""
"","","","","","canvas-keyboard-response","190","1648725","0.0-12.0-3.35","2d_cat_multi_stim_exp1","2022-4-19","15:51:12","25","75","3","9","10","40","30","120","47","21","[""Black or African-American"",""White""]","No","Female","3638056","null","null","learn_feedback","","","learn_feedback","25","75","in","","","","","","","","","","","","","","","","","","","","","","",""
"","","","","","canvas-keyboard-response","191","1648784","0.0-12.0-4.35","2d_cat_multi_stim_exp1","2022-4-19","15:51:12","25","75","3","9","10","40","30","120","47","21","[""Black or African-American"",""White""]","No","Female","3638056","null","null","","","","clear_screen","","","","","","","","","","","","","","","","","","","","","","","","","",""
"","","","","","canvas-keyboard-response","192","1649293","0.0-12.0-0.36","2d_cat_multi_stim_exp1","2022-4-19","15:51:12","25","75","3","9","10","40","30","120","47","21","[""Black or African-American"",""White""]","No","Female","3638056","null","null","","","","fixation","","","","","","","","","","","","","","","","","","","","","","","","","",""
"","","","","","canvas-keyboard-response","193","1649802","0.0-12.0-1.36","2d_cat_multi_stim_exp1","2022-4-19","15:51:12","25","75","3","9","10","40","30","120","47","21","[""Black or African-American"",""White""]","No","Female","3638056","null","null","","","","clear_screen","","","","","","","","","","","","","","","","","","","","","","","","","",""
"","","","","","canvas-keyboard-response","194","1650968","0.0-12.0-2.36","2d_cat_multi_stim_exp1","2022-4-19","15:51:12","25","75","3","9","10","40","30","120","47","21","[""Black or African-American"",""White""]","No","Female","3638056","1155","i","learn","","","learn_trial","13.3333","110","out","0","1","","","","","","","","","","","","","","","","","","","","",""
"","","","","","canvas-keyboard-response","195","1651477","0.0-12.0-3.36","2d_cat_multi_stim_exp1","2022-4-19","15:51:12","25","75","3","9","10","40","30","120","47","21","[""Black or African-American"",""White""]","No","Female","3638056","null","null","learn_feedback","","","learn_feedback","13.3333","110","out","","","","","","","","","","","","","","","","","","","","","","",""
"","","","","","canvas-keyboard-response","196","1651537","0.0-12.0-4.36","2d_cat_multi_stim_exp1","2022-4-19","15:51:12","25","75","3","9","10","40","30","120","47","21","[""Black or African-American"",""White""]","No","Female","3638056","null","null","","","","clear_screen","","","","","","","","","","","","","","","","","","","","","","","","","",""
"","","","","","canvas-keyboard-response","197","1652045","0.0-12.0-0.37","2d_cat_multi_stim_exp1","2022-4-19","15:51:12","25","75","3","9","10","40","30","120","47","21","[""Black or African-American"",""White""]","No","Female","3638056","null","null","","","","fixation","","","","","","","","","","","","","","","","","","","","","","","","","",""
"","","","","","canvas-keyboard-response","198","1652557","0.0-12.0-1.37","2d_cat_multi_stim_exp1","2022-4-19","15:51:12","25","75","3","9","10","40","30","120","47","21","[""Black or African-American"",""White""]","No","Female","3638056","null","null","","","","clear_screen","","","","","","","","","","","","","","","","","","","","","","","","","",""
"","","","","","canvas-keyboard-response","199","1654143","0.0-12.0-2.37","2d_cat_multi_stim_exp1","2022-4-19","15:51:12","25","75","3","9","10","40","30","120","47","21","[""Black or African-American"",""White""]","No","Female","3638056","1575","u","learn","","","learn_trial","25","75","in","1","1","","","","","","","","","","","","","","","","","","","","",""
"","","","","","canvas-keyboard-response","200","1654654","0.0-12.0-3.37","2d_cat_multi_stim_exp1","2022-4-19","15:51:12","25","75","3","9","10","40","30","120","47","21","[""Black or African-American"",""White""]","No","Female","3638056","null","null","learn_feedback","","","learn_feedback","25","75","in","","","","","","","","","","","","","","","","","","","","","","",""
"","","","","","canvas-keyboard-response","201","1654715","0.0-12.0-4.37","2d_cat_multi_stim_exp1","2022-4-19","15:51:12","25","75","3","9","10","40","30","120","47","21","[""Black or African-American"",""White""]","No","Female","3638056","null","null","","","","clear_screen","","","","","","","","","","","","","","","","","","","","","","","","","",""
"","","","","","canvas-keyboard-response","202","1655225","0.0-12.0-0.38","2d_cat_multi_stim_exp1","2022-4-19","15:51:12","25","75","3","9","10","40","30","120","47","21","[""Black or African-American"",""White""]","No","Female","3638056","null","null","","","","fixation","","","","","","","","","","","","","","","","","","","","","","","","","",""
"","","","","","canvas-keyboard-response","203","1655736","0.0-12.0-1.38","2d_cat_multi_stim_exp1","2022-4-19","15:51:12","25","75","3","9","10","40","30","120","47","21","[""Black or African-American"",""White""]","No","Female","3638056","null","null","","","","clear_screen","","","","","","","","","","","","","","","","","","","","","","","","","",""
"","","","","","canvas-keyboard-response","204","1657519","0.0-12.0-2.38","2d_cat_multi_stim_exp1","2022-4-19","15:51:12","25","75","3","9","10","40","30","120","47","21","[""Black or African-American"",""White""]","No","Female","3638056","1769","u","learn","","","learn_trial","26.8705","67.9635","in","1","1","","","","","","","","","","","","","","","","","","","","",""
"","","","","","canvas-keyboard-response","205","1658030","0.0-12.0-3.38","2d_cat_multi_stim_exp1","2022-4-19","15:51:12","25","75","3","9","10","40","30","120","47","21","[""Black or African-American"",""White""]","No","Female","3638056","null","null","learn_feedback","","","learn_feedback","26.8705","67.9635","in","","","","","","","","","","","","","","","","","","","","","","",""
"","","","","","canvas-keyboard-response","206","1658089","0.0-12.0-4.38","2d_cat_multi_stim_exp1","2022-4-19","15:51:12","25","75","3","9","10","40","30","120","47","21","[""Black or African-American"",""White""]","No","Female","3638056","null","null","","","","clear_screen","","","","","","","","","","","","","","","","","","","","","","","","","",""
"","","","","","canvas-keyboard-response","207","1658598","0.0-12.0-0.39","2d_cat_multi_stim_exp1","2022-4-19","15:51:12","25","75","3","9","10","40","30","120","47","21","[""Black or African-American"",""White""]","No","Female","3638056","null","null","","","","fixation","","","","","","","","","","","","","","","","","","","","","","","","","",""
"","","","","","canvas-keyboard-response","208","1659109","0.0-12.0-1.39","2d_cat_multi_stim_exp1","2022-4-19","15:51:12","25","75","3","9","10","40","30","120","47","21","[""Black or African-American"",""White""]","No","Female","3638056","null","null","","","","clear_screen","","","","","","","","","","","","","","","","","","","","","","","","","",""
"","","","","","canvas-keyboard-response","209","1660400","0.0-12.0-2.39","2d_cat_multi_stim_exp1","2022-4-19","15:51:12","25","75","3","9","10","40","30","120","47","21","[""Black or African-American"",""White""]","No","Female","3638056","1281","u","learn","","","learn_trial","25","75","in","1","1","","","","","","","","","","","","","","","","","","","","",""
"","","","","","canvas-keyboard-response","210","1660910","0.0-12.0-3.39","2d_cat_multi_stim_exp1","2022-4-19","15:51:12","25","75","3","9","10","40","30","120","47","21","[""Black or African-American"",""White""]","No","Female","3638056","null","null","learn_feedback","","","learn_feedback","25","75","in","","","","","","","","","","","","","","","","","","","","","","",""
"","","","","","canvas-keyboard-response","211","1660970","0.0-12.0-4.39","2d_cat_multi_stim_exp1","2022-4-19","15:51:12","25","75","3","9","10","40","30","120","47","21","[""Black or African-American"",""White""]","No","Female","3638056","null","null","","","","clear_screen","","","","","","","","","","","","","","","","","","","","","","","","","",""
"","","","","","canvas-keyboard-response","212","1661479","0.0-12.0-0.40","2d_cat_multi_stim_exp1","2022-4-19","15:51:12","25","75","3","9","10","40","30","120","47","21","[""Black or African-American"",""White""]","No","Female","3638056","null","null","","","","fixation","","","","","","","","","","","","","","","","","","","","","","","","","",""
"","","","","","canvas-keyboard-response","213","1661989","0.0-12.0-1.40","2d_cat_multi_stim_exp1","2022-4-19","15:51:12","25","75","3","9","10","40","30","120","47","21","[""Black or African-American"",""White""]","No","Female","3638056","null","null","","","","clear_screen","","","","","","","","","","","","","","","","","","","","","","","","","",""
"","","","","","canvas-keyboard-response","214","1663527","0.0-12.0-2.40","2d_cat_multi_stim_exp1","2022-4-19","15:51:12","25","75","3","9","10","40","30","120","47","21","[""Black or African-American"",""White""]","No","Female","3638056","1528","u","learn","","","learn_trial","25","75","in","1","1","","","","","","","","","","","","","","","","","","","","",""
"","","","","","canvas-keyboard-response","215","1664037","0.0-12.0-3.40","2d_cat_multi_stim_exp1","2022-4-19","15:51:12","25","75","3","9","10","40","30","120","47","21","[""Black or African-American"",""White""]","No","Female","3638056","null","null","learn_feedback","","","learn_feedback","25","75","in","","","","","","","","","","","","","","","","","","","","","","",""
"","","","","","canvas-keyboard-response","216","1664096","0.0-12.0-4.40","2d_cat_multi_stim_exp1","2022-4-19","15:51:12","25","75","3","9","10","40","30","120","47","21","[""Black or African-American"",""White""]","No","Female","3638056","null","null","","","","clear_screen","","","","","","","","","","","","","","","","","","","","","","","","","",""
"","","","","","canvas-keyboard-response","217","1664606","0.0-12.0-0.41","2d_cat_multi_stim_exp1","2022-4-19","15:51:12","25","75","3","9","10","40","30","120","47","21","[""Black or African-American"",""White""]","No","Female","3638056","null","null","","","","fixation","","","","","","","","","","","","","","","","","","","","","","","","","",""
"","","","","","canvas-keyboard-response","218","1665116","0.0-12.0-1.41","2d_cat_multi_stim_exp1","2022-4-19","15:51:12","25","75","3","9","10","40","30","120","47","21","[""Black or African-American"",""White""]","No","Female","3638056","null","null","","","","clear_screen","","","","","","","","","","","","","","","","","","","","","","","","","",""
"","","","","","canvas-keyboard-response","219","1666328","0.0-12.0-2.41","2d_cat_multi_stim_exp1","2022-4-19","15:51:12","25","75","3","9","10","40","30","120","47","21","[""Black or African-American"",""White""]","No","Female","3638056","1200","i","learn","","","learn_trial","40","100","out","0","1","","","","","","","","","","","","","","","","","","","","",""
"","","","","","canvas-keyboard-response","220","1666837","0.0-12.0-3.41","2d_cat_multi_stim_exp1","2022-4-19","15:51:12","25","75","3","9","10","40","30","120","47","21","[""Black or African-American"",""White""]","No","Female","3638056","null","null","learn_feedback","","","learn_feedback","40","100","out","","","","","","","","","","","","","","","","","","","","","","",""
"","","","","","canvas-keyboard-response","221","1666897","0.0-12.0-4.41","2d_cat_multi_stim_exp1","2022-4-19","15:51:12","25","75","3","9","10","40","30","120","47","21","[""Black or African-American"",""White""]","No","Female","3638056","null","null","","","","clear_screen","","","","","","","","","","","","","","","","","","","","","","","","","",""
"","","","","","canvas-keyboard-response","222","1667405","0.0-12.0-0.42","2d_cat_multi_stim_exp1","2022-4-19","15:51:12","25","75","3","9","10","40","30","120","47","21","[""Black or African-American"",""White""]","No","Female","3638056","null","null","","","","fixation","","","","","","","","","","","","","","","","","","","","","","","","","",""
"","","","","","canvas-keyboard-response","223","1667915","0.0-12.0-1.42","2d_cat_multi_stim_exp1","2022-4-19","15:51:12","25","75","3","9","10","40","30","120","47","21","[""Black or African-American"",""White""]","No","Female","3638056","null","null","","","","clear_screen","","","","","","","","","","","","","","","","","","","","","","","","","",""
"","","","","","canvas-keyboard-response","224","1668815","0.0-12.0-2.42","2d_cat_multi_stim_exp1","2022-4-19","15:51:12","25","75","3","9","10","40","30","120","47","21","[""Black or African-American"",""White""]","No","Female","3638056","890","u","learn","","","learn_trial","25","75","in","1","1","","","","","","","","","","","","","","","","","","","","",""
"","","","","","canvas-keyboard-response","225","1669325","0.0-12.0-3.42","2d_cat_multi_stim_exp1","2022-4-19","15:51:12","25","75","3","9","10","40","30","120","47","21","[""Black or African-American"",""White""]","No","Female","3638056","null","null","learn_feedback","","","learn_feedback","25","75","in","","","","","","","","","","","","","","","","","","","","","","",""
"","","","","","canvas-keyboard-response","226","1669384","0.0-12.0-4.42","2d_cat_multi_stim_exp1","2022-4-19","15:51:12","25","75","3","9","10","40","30","120","47","21","[""Black or African-American"",""White""]","No","Female","3638056","null","null","","","","clear_screen","","","","","","","","","","","","","","","","","","","","","","","","","",""
"","","","","","canvas-keyboard-response","227","1669894","0.0-12.0-0.43","2d_cat_multi_stim_exp1","2022-4-19","15:51:12","25","75","3","9","10","40","30","120","47","21","[""Black or African-American"",""White""]","No","Female","3638056","null","null","","","","fixation","","","","","","","","","","","","","","","","","","","","","","","","","",""
"","","","","","canvas-keyboard-response","228","1670404","0.0-12.0-1.43","2d_cat_multi_stim_exp1","2022-4-19","15:51:12","25","75","3","9","10","40","30","120","47","21","[""Black or African-American"",""White""]","No","Female","3638056","null","null","","","","clear_screen","","","","","","","","","","","","","","","","","","","","","","","","","",""
"","","","","","canvas-keyboard-response","229","1673567","0.0-12.0-2.43","2d_cat_multi_stim_exp1","2022-4-19","15:51:12","25","75","3","9","10","40","30","120","47","21","[""Black or African-American"",""White""]","No","Female","3638056","3154","i","learn","","","learn_trial","27.5753","70.3839","in","0","0","","","","","","","","","","","","","","","","","","","","",""
"","","","","","canvas-keyboard-response","230","1674577","0.0-12.0-3.43","2d_cat_multi_stim_exp1","2022-4-19","15:51:12","25","75","3","9","10","40","30","120","47","21","[""Black or African-American"",""White""]","No","Female","3638056","null","null","learn_feedback","","","learn_feedback","27.5753","70.3839","in","","","","","","","","","","","","","","","","","","","","","","",""
"","","","","","canvas-keyboard-response","231","1674636","0.0-12.0-4.43","2d_cat_multi_stim_exp1","2022-4-19","15:51:12","25","75","3","9","10","40","30","120","47","21","[""Black or African-American"",""White""]","No","Female","3638056","null","null","","","","clear_screen","","","","","","","","","","","","","","","","","","","","","","","","","",""
"","","","","","canvas-keyboard-response","232","1675144","0.0-12.0-0.44","2d_cat_multi_stim_exp1","2022-4-19","15:51:12","25","75","3","9","10","40","30","120","47","21","[""Black or African-American"",""White""]","No","Female","3638056","null","null","","","","fixation","","","","","","","","","","","","","","","","","","","","","","","","","",""
"","","","","","canvas-keyboard-response","233","1675655","0.0-12.0-1.44","2d_cat_multi_stim_exp1","2022-4-19","15:51:12","25","75","3","9","10","40","30","120","47","21","[""Black or African-American"",""White""]","No","Female","3638056","null","null","","","","clear_screen","","","","","","","","","","","","","","","","","","","","","","","","","",""
"","","","","","canvas-keyboard-response","234","1676983","0.0-12.0-2.44","2d_cat_multi_stim_exp1","2022-4-19","15:51:12","25","75","3","9","10","40","30","120","47","21","[""Black or African-American"",""White""]","No","Female","3638056","1313","u","learn","","","learn_trial","25","75","in","1","1","","","","","","","","","","","","","","","","","","","","",""
"","","","","","canvas-keyboard-response","235","1677493","0.0-12.0-3.44","2d_cat_multi_stim_exp1","2022-4-19","15:51:12","25","75","3","9","10","40","30","120","47","21","[""Black or African-American"",""White""]","No","Female","3638056","null","null","learn_feedback","","","learn_feedback","25","75","in","","","","","","","","","","","","","","","","","","","","","","",""
"","","","","","canvas-keyboard-response","236","1677552","0.0-12.0-4.44","2d_cat_multi_stim_exp1","2022-4-19","15:51:12","25","75","3","9","10","40","30","120","47","21","[""Black or African-American"",""White""]","No","Female","3638056","null","null","","","","clear_screen","","","","","","","","","","","","","","","","","","","","","","","","","",""
"","","","","","canvas-keyboard-response","237","1678061","0.0-12.0-0.45","2d_cat_multi_stim_exp1","2022-4-19","15:51:12","25","75","3","9","10","40","30","120","47","21","[""Black or African-American"",""White""]","No","Female","3638056","null","null","","","","fixation","","","","","","","","","","","","","","","","","","","","","","","","","",""
"","","","","","canvas-keyboard-response","238","1678570","0.0-12.0-1.45","2d_cat_multi_stim_exp1","2022-4-19","15:51:12","25","75","3","9","10","40","30","120","47","21","[""Black or African-American"",""White""]","No","Female","3638056","null","null","","","","clear_screen","","","","","","","","","","","","","","","","","","","","","","","","","",""
"","","","","","canvas-keyboard-response","239","1683030","0.0-12.0-2.45","2d_cat_multi_stim_exp1","2022-4-19","15:51:12","25","75","3","9","10","40","30","120","47","21","[""Black or African-American"",""White""]","No","Female","3638056","4450","i","learn","","","learn_trial","30","90","out","0","1","","","","","","","","","","","","","","","","","","","","",""
"","","","","","canvas-keyboard-response","240","1683540","0.0-12.0-3.45","2d_cat_multi_stim_exp1","2022-4-19","15:51:12","25","75","3","9","10","40","30","120","47","21","[""Black or African-American"",""White""]","No","Female","3638056","null","null","learn_feedback","","","learn_feedback","30","90","out","","","","","","","","","","","","","","","","","","","","","","",""
"","","","","","canvas-keyboard-response","241","1683599","0.0-12.0-4.45","2d_cat_multi_stim_exp1","2022-4-19","15:51:12","25","75","3","9","10","40","30","120","47","21","[""Black or African-American"",""White""]","No","Female","3638056","null","null","","","","clear_screen","","","","","","","","","","","","","","","","","","","","","","","","","",""
"","","","","","canvas-keyboard-response","242","1684108","0.0-12.0-0.46","2d_cat_multi_stim_exp1","2022-4-19","15:51:12","25","75","3","9","10","40","30","120","47","21","[""Black or African-American"",""White""]","No","Female","3638056","null","null","","","","fixation","","","","","","","","","","","","","","","","","","","","","","","","","",""
"","","","","","canvas-keyboard-response","243","1684618","0.0-12.0-1.46","2d_cat_multi_stim_exp1","2022-4-19","15:51:12","25","75","3","9","10","40","30","120","47","21","[""Black or African-American"",""White""]","No","Female","3638056","null","null","","","","clear_screen","","","","","","","","","","","","","","","","","","","","","","","","","",""
"","","","","","canvas-keyboard-response","244","1685823","0.0-12.0-2.46","2d_cat_multi_stim_exp1","2022-4-19","15:51:12","25","75","3","9","10","40","30","120","47","21","[""Black or African-American"",""White""]","No","Female","3638056","1195","u","learn","","","learn_trial","25","75","in","1","1","","","","","","","","","","","","","","","","","","","","",""
"","","","","","canvas-keyboard-response","245","1686332","0.0-12.0-3.46","2d_cat_multi_stim_exp1","2022-4-19","15:51:12","25","75","3","9","10","40","30","120","47","21","[""Black or African-American"",""White""]","No","Female","3638056","null","null","learn_feedback","","","learn_feedback","25","75","in","","","","","","","","","","","","","","","","","","","","","","",""
"","","","","","canvas-keyboard-response","246","1686391","0.0-12.0-4.46","2d_cat_multi_stim_exp1","2022-4-19","15:51:12","25","75","3","9","10","40","30","120","47","21","[""Black or African-American"",""White""]","No","Female","3638056","null","null","","","","clear_screen","","","","","","","","","","","","","","","","","","","","","","","","","",""
"","","","","","canvas-keyboard-response","247","1686901","0.0-12.0-0.47","2d_cat_multi_stim_exp1","2022-4-19","15:51:12","25","75","3","9","10","40","30","120","47","21","[""Black or African-American"",""White""]","No","Female","3638056","null","null","","","","fixation","","","","","","","","","","","","","","","","","","","","","","","","","",""
"","","","","","canvas-keyboard-response","248","1687409","0.0-12.0-1.47","2d_cat_multi_stim_exp1","2022-4-19","15:51:12","25","75","3","9","10","40","30","120","47","21","[""Black or African-American"",""White""]","No","Female","3638056","null","null","","","","clear_screen","","","","","","","","","","","","","","","","","","","","","","","","","",""
"","","","","","canvas-keyboard-response","249","1690032","0.0-12.0-2.47","2d_cat_multi_stim_exp1","2022-4-19","15:51:12","25","75","3","9","10","40","30","120","47","21","[""Black or African-American"",""White""]","No","Female","3638056","2610","i","learn","","","learn_trial","30","70","out","0","1","","","","","","","","","","","","","","","","","","","","",""
"","","","","","canvas-keyboard-response","250","1690542","0.0-12.0-3.47","2d_cat_multi_stim_exp1","2022-4-19","15:51:12","25","75","3","9","10","40","30","120","47","21","[""Black or African-American"",""White""]","No","Female","3638056","null","null","learn_feedback","","","learn_feedback","30","70","out","","","","","","","","","","","","","","","","","","","","","","",""
"","","","","","canvas-keyboard-response","251","1690600","0.0-12.0-4.47","2d_cat_multi_stim_exp1","2022-4-19","15:51:12","25","75","3","9","10","40","30","120","47","21","[""Black or African-American"",""White""]","No","Female","3638056","null","null","","","","clear_screen","","","","","","","","","","","","","","","","","","","","","","","","","",""
"","","","","","canvas-keyboard-response","252","1691109","0.0-12.0-0.48","2d_cat_multi_stim_exp1","2022-4-19","15:51:12","25","75","3","9","10","40","30","120","47","21","[""Black or African-American"",""White""]","No","Female","3638056","null","null","","","","fixation","","","","","","","","","","","","","","","","","","","","","","","","","",""
"","","","","","canvas-keyboard-response","253","1691618","0.0-12.0-1.48","2d_cat_multi_stim_exp1","2022-4-19","15:51:12","25","75","3","9","10","40","30","120","47","21","[""Black or African-American"",""White""]","No","Female","3638056","null","null","","","","clear_screen","","","","","","","","","","","","","","","","","","","","","","","","","",""
"","","","","","canvas-keyboard-response","254","1692815","0.0-12.0-2.48","2d_cat_multi_stim_exp1","2022-4-19","15:51:12","25","75","3","9","10","40","30","120","47","21","[""Black or African-American"",""White""]","No","Female","3638056","1187","i","learn","","","learn_trial","20","80","out","0","1","","","","","","","","","","","","","","","","","","","","",""
"","","","","","canvas-keyboard-response","255","1693325","0.0-12.0-3.48","2d_cat_multi_stim_exp1","2022-4-19","15:51:12","25","75","3","9","10","40","30","120","47","21","[""Black or African-American"",""White""]","No","Female","3638056","null","null","learn_feedback","","","learn_feedback","20","80","out","","","","","","","","","","","","","","","","","","","","","","",""
"","","","","","canvas-keyboard-response","256","1693384","0.0-12.0-4.48","2d_cat_multi_stim_exp1","2022-4-19","15:51:12","25","75","3","9","10","40","30","120","47","21","[""Black or African-American"",""White""]","No","Female","3638056","null","null","","","","clear_screen","","","","","","","","","","","","","","","","","","","","","","","","","",""
"","","","","","canvas-keyboard-response","257","1693892","0.0-12.0-0.49","2d_cat_multi_stim_exp1","2022-4-19","15:51:12","25","75","3","9","10","40","30","120","47","21","[""Black or African-American"",""White""]","No","Female","3638056","null","null","","","","fixation","","","","","","","","","","","","","","","","","","","","","","","","","",""
"","","","","","canvas-keyboard-response","258","1694402","0.0-12.0-1.49","2d_cat_multi_stim_exp1","2022-4-19","15:51:12","25","75","3","9","10","40","30","120","47","21","[""Black or African-American"",""White""]","No","Female","3638056","null","null","","","","clear_screen","","","","","","","","","","","","","","","","","","","","","","","","","",""
"","","","","","canvas-keyboard-response","259","1695527","0.0-12.0-2.49","2d_cat_multi_stim_exp1","2022-4-19","15:51:12","25","75","3","9","10","40","30","120","47","21","[""Black or African-American"",""White""]","No","Female","3638056","1115","i","learn","","","learn_trial","26.6667","110","out","0","1","","","","","","","","","","","","","","","","","","","","",""
"","","","","","canvas-keyboard-response","260","1696037","0.0-12.0-3.49","2d_cat_multi_stim_exp1","2022-4-19","15:51:12","25","75","3","9","10","40","30","120","47","21","[""Black or African-American"",""White""]","No","Female","3638056","null","null","learn_feedback","","","learn_feedback","26.6667","110","out","","","","","","","","","","","","","","","","","","","","","","",""
"","","","","","canvas-keyboard-response","261","1696096","0.0-12.0-4.49","2d_cat_multi_stim_exp1","2022-4-19","15:51:12","25","75","3","9","10","40","30","120","47","21","[""Black or African-American"",""White""]","No","Female","3638056","null","null","","","","clear_screen","","","","","","","","","","","","","","","","","","","","","","","","","",""
"","","","","","canvas-keyboard-response","262","1696606","0.0-12.0-0.50","2d_cat_multi_stim_exp1","2022-4-19","15:51:12","25","75","3","9","10","40","30","120","47","21","[""Black or African-American"",""White""]","No","Female","3638056","null","null","","","","fixation","","","","","","","","","","","","","","","","","","","","","","","","","",""
"","","","","","canvas-keyboard-response","263","1697115","0.0-12.0-1.50","2d_cat_multi_stim_exp1","2022-4-19","15:51:12","25","75","3","9","10","40","30","120","47","21","[""Black or African-American"",""White""]","No","Female","3638056","null","null","","","","clear_screen","","","","","","","","","","","","","","","","","","","","","","","","","",""
"","","","","","canvas-keyboard-response","264","1698071","0.0-12.0-2.50","2d_cat_multi_stim_exp1","2022-4-19","15:51:12","25","75","3","9","10","40","30","120","47","21","[""Black or African-American"",""White""]","No","Female","3638056","942","i","learn","","","learn_trial","20","60","out","0","1","","","","","","","","","","","","","","","","","","","","",""
"","","","","","canvas-keyboard-response","265","1698581","0.0-12.0-3.50","2d_cat_multi_stim_exp1","2022-4-19","15:51:12","25","75","3","9","10","40","30","120","47","21","[""Black or African-American"",""White""]","No","Female","3638056","null","null","learn_feedback","","","learn_feedback","20","60","out","","","","","","","","","","","","","","","","","","","","","","",""
"","","","","","canvas-keyboard-response","266","1698640","0.0-12.0-4.50","2d_cat_multi_stim_exp1","2022-4-19","15:51:12","25","75","3","9","10","40","30","120","47","21","[""Black or African-American"",""White""]","No","Female","3638056","null","null","","","","clear_screen","","","","","","","","","","","","","","","","","","","","","","","","","",""
"","","","","","canvas-keyboard-response","267","1699149","0.0-12.0-0.51","2d_cat_multi_stim_exp1","2022-4-19","15:51:12","25","75","3","9","10","40","30","120","47","21","[""Black or African-American"",""White""]","No","Female","3638056","null","null","","","","fixation","","","","","","","","","","","","","","","","","","","","","","","","","",""
"","","","","","canvas-keyboard-response","268","1699658","0.0-12.0-1.51","2d_cat_multi_stim_exp1","2022-4-19","15:51:12","25","75","3","9","10","40","30","120","47","21","[""Black or African-American"",""White""]","No","Female","3638056","null","null","","","","clear_screen","","","","","","","","","","","","","","","","","","","","","","","","","",""
"","","","","","canvas-keyboard-response","269","1700615","0.0-12.0-2.51","2d_cat_multi_stim_exp1","2022-4-19","15:51:12","25","75","3","9","10","40","30","120","47","21","[""Black or African-American"",""White""]","No","Female","3638056","948","i","learn","","","learn_trial","29.2426","62.2721","in","0","0","","","","","","","","","","","","","","","","","","","","",""
"","","","","","canvas-keyboard-response","270","1701625","0.0-12.0-3.51","2d_cat_multi_stim_exp1","2022-4-19","15:51:12","25","75","3","9","10","40","30","120","47","21","[""Black or African-American"",""White""]","No","Female","3638056","null","null","learn_feedback","","","learn_feedback","29.2426","62.2721","in","","","","","","","","","","","","","","","","","","","","","","",""
