"success","timeout","failed_images","failed_audio","failed_video","trial_type","trial_index","time_elapsed","internal_node_id","exp_name","date","time","angle_mean_in","radius_mean_in","angle_sd_in","radius_sd_in","angle_min_out","angle_max_out","radius_min_out","radius_max_out","sub_n","age","race","ethnicity","gender","exp_duration","rt","response","exp_trial_type","stimulus","view_history","screen_id","angle","radius","distribution","choice","correct","order","angle_a","radius_a","angle_b","radius_b","jkl_correct","transfer_trial_type","choice_set","abc_correct","tc_correct","tc_angle","tdc_a","tdc_b","tdc_c","pair","category_a","category_b","category_c","angle_c","radius_c","question_order"
"true","false","[]","[]","[]","preload","0","18","0.0-0.0","2d_cat_multi_stim_exp1","2022-5-2","14:44:57","25","75","3","9","10","40","30","120","77","22","[""Asian""]","No","Female","2055345","","","","","","","","","","","","","","","","","","","","","","","","","","","","","","","",""
"","","","","","survey-html-form","1","3324","0.0-1.0","2d_cat_multi_stim_exp1","2022-5-2","14:44:57","25","75","3","9","10","40","30","120","77","22","[""Asian""]","No","Female","2055345","3293","{""response"":""77""}","enter-sub-number","","","","","","","","","","","","","","","","","","","","","","","","","","","","",""
"true","","","","","fullscreen","2","5993","0.0-2.0","2d_cat_multi_stim_exp1","2022-5-2","14:44:57","25","75","3","9","10","40","30","120","77","22","[""Asian""]","No","Female","2055345","","","","","","","","","","","","","","","","","","","","","","","","","","","","","","","",""
"","","","","","image-button-response","3","16848","0.0-3.0","2d_cat_multi_stim_exp1","2022-5-2","14:44:57","25","75","3","9","10","40","30","120","77","22","[""Asian""]","No","Female","2055345","10847","0","","consent.png","","","","","","","","","","","","","","","","","","","","","","","","","","","",""
"","","","","","html-button-response","4","19754","0.0-4.0","2d_cat_multi_stim_exp1","2022-5-2","14:44:57","25","75","3","9","10","40","30","120","77","22","[""Asian""]","No","Female","2055345","2902","0","","<div style= ""font-size:25px;"" <p> <strong> Welcome to the experiment! </strong><br> <p style=""color:#8B0000; font-size:25px;""><strong> Please do NOT exit full screen until you are done with the experiment. </strong> </p><p style=""font-size:25px;color:#8B0000;""> <strong> The experiment will be canceled and your data will be lost <br> if you try to go back or refresh the page at any point during the experiment.</strong> </p><br><p> <strong> Thanks in advance for your contribution to our research! </strong></p>","","","","","","","","","","","","","","","","","","","","","","","","","","","",""
"","","","","","instructions","5","66393","0.0-5.0","2d_cat_multi_stim_exp1","2022-5-2","14:44:57","25","75","3","9","10","40","30","120","77","22","[""Asian""]","No","Female","2055345","46635","","","","[{""page_index"":0,""viewing_time"":7081},{""page_index"":1,""viewing_time"":4498},{""page_index"":2,""viewing_time"":32168},{""page_index"":3,""viewing_time"":2888}]","instructions_1","","","","","","","","","","","","","","","","","","","","","","","","","",""
"","","","","","instructions","6","68841","0.0-6.0","2d_cat_multi_stim_exp1","2022-5-2","14:44:57","25","75","3","9","10","40","30","120","77","22","[""Asian""]","No","Female","2055345","2444","","","","[{""page_index"":0,""viewing_time"":2444}]","Click to see the kinds of turtles that will appear in the study.","","","","","","","","","","","","","","","","","","","","","","","","","",""
"","","","","","canvas-keyboard-response","7","83859","0.0-7.0","2d_cat_multi_stim_exp1","2022-5-2","14:44:57","25","75","3","9","10","40","30","120","77","22","[""Asian""]","No","Female","2055345","null","null","","","","demo_range","","","","","","","","","","","","","","","","","","","","","","","","","",""
"","","","","","instructions","8","86224","0.0-8.0","2d_cat_multi_stim_exp1","2022-5-2","14:44:57","25","75","3","9","10","40","30","120","77","22","[""Asian""]","No","Female","2055345","1863","","","","[{""page_index"":0,""viewing_time"":1863}]","Click to see some turtles in the subspecies.","","","","","","","","","","","","","","","","","","","","","","","","","",""
"","","","","","canvas-keyboard-response","9","101243","0.0-9.0","2d_cat_multi_stim_exp1","2022-5-2","14:44:57","25","75","3","9","10","40","30","120","77","22","[""Asian""]","No","Female","2055345","null","null","","","","demo_in","","","","","","","","","","","","","","","","","","","","","","","","","",""
"","","","","","instructions","10","124409","0.0-10.0","2d_cat_multi_stim_exp1","2022-5-2","14:44:57","25","75","3","9","10","40","30","120","77","22","[""Asian""]","No","Female","2055345","22662","","","","[{""page_index"":0,""viewing_time"":5549},{""page_index"":1,""viewing_time"":13274},{""page_index"":2,""viewing_time"":3839}]","instructions_2","","","","","","","","","","","","","","","","","","","","","","","","","",""
"","","","","","instructions","11","126032","0.0-11.0","2d_cat_multi_stim_exp1","2022-5-2","14:44:57","25","75","3","9","10","40","30","120","77","22","[""Asian""]","No","Female","2055345","1621","","","","[{""page_index"":0,""viewing_time"":1621}]","Click to begin the first phase of the experiment.","","","","","","","","","","","","","","","","","","","","","","","","","",""
"","","","","","canvas-keyboard-response","12","126543","0.0-12.0-0.0","2d_cat_multi_stim_exp1","2022-5-2","14:44:57","25","75","3","9","10","40","30","120","77","22","[""Asian""]","No","Female","2055345","null","null","","","","fixation","","","","","","","","","","","","","","","","","","","","","","","","","",""
"","","","","","canvas-keyboard-response","13","127057","0.0-12.0-1.0","2d_cat_multi_stim_exp1","2022-5-2","14:44:57","25","75","3","9","10","40","30","120","77","22","[""Asian""]","No","Female","2055345","null","null","","","","clear_screen","","","","","","","","","","","","","","","","","","","","","","","","","",""
"","","","","","canvas-keyboard-response","14","134056","0.0-12.0-2.0","2d_cat_multi_stim_exp1","2022-5-2","14:44:57","25","75","3","9","10","40","30","120","77","22","[""Asian""]","No","Female","2055345","6988","u","learn","","","learn_trial","26.6667","110","out","1","0","","","","","","","","","","","","","","","","","","","","",""
"","","","","","canvas-keyboard-response","15","135070","0.0-12.0-3.0","2d_cat_multi_stim_exp1","2022-5-2","14:44:57","25","75","3","9","10","40","30","120","77","22","[""Asian""]","No","Female","2055345","null","null","learn_feedback","","","learn_feedback","26.6667","110","out","","","","","","","","","","","","","","","","","","","","","","",""
"","","","","","canvas-keyboard-response","16","135129","0.0-12.0-4.0","2d_cat_multi_stim_exp1","2022-5-2","14:44:57","25","75","3","9","10","40","30","120","77","22","[""Asian""]","No","Female","2055345","null","null","","","","clear_screen","","","","","","","","","","","","","","","","","","","","","","","","","",""
"","","","","","canvas-keyboard-response","17","135640","0.0-12.0-0.1","2d_cat_multi_stim_exp1","2022-5-2","14:44:57","25","75","3","9","10","40","30","120","77","22","[""Asian""]","No","Female","2055345","null","null","","","","fixation","","","","","","","","","","","","","","","","","","","","","","","","","",""
"","","","","","canvas-keyboard-response","18","136153","0.0-12.0-1.1","2d_cat_multi_stim_exp1","2022-5-2","14:44:57","25","75","3","9","10","40","30","120","77","22","[""Asian""]","No","Female","2055345","null","null","","","","clear_screen","","","","","","","","","","","","","","","","","","","","","","","","","",""
"","","","","","canvas-keyboard-response","19","137440","0.0-12.0-2.1","2d_cat_multi_stim_exp1","2022-5-2","14:44:57","25","75","3","9","10","40","30","120","77","22","[""Asian""]","No","Female","2055345","1275","i","learn","","","learn_trial","30","120","out","0","1","","","","","","","","","","","","","","","","","","","","",""
"","","","","","canvas-keyboard-response","20","137949","0.0-12.0-3.1","2d_cat_multi_stim_exp1","2022-5-2","14:44:57","25","75","3","9","10","40","30","120","77","22","[""Asian""]","No","Female","2055345","null","null","learn_feedback","","","learn_feedback","30","120","out","","","","","","","","","","","","","","","","","","","","","","",""
"","","","","","canvas-keyboard-response","21","138010","0.0-12.0-4.1","2d_cat_multi_stim_exp1","2022-5-2","14:44:57","25","75","3","9","10","40","30","120","77","22","[""Asian""]","No","Female","2055345","null","null","","","","clear_screen","","","","","","","","","","","","","","","","","","","","","","","","","",""
"","","","","","canvas-keyboard-response","22","138519","0.0-12.0-0.2","2d_cat_multi_stim_exp1","2022-5-2","14:44:57","25","75","3","9","10","40","30","120","77","22","[""Asian""]","No","Female","2055345","null","null","","","","fixation","","","","","","","","","","","","","","","","","","","","","","","","","",""
"","","","","","canvas-keyboard-response","23","139034","0.0-12.0-1.2","2d_cat_multi_stim_exp1","2022-5-2","14:44:57","25","75","3","9","10","40","30","120","77","22","[""Asian""]","No","Female","2055345","null","null","","","","clear_screen","","","","","","","","","","","","","","","","","","","","","","","","","",""
"","","","","","canvas-keyboard-response","24","140233","0.0-12.0-2.2","2d_cat_multi_stim_exp1","2022-5-2","14:44:57","25","75","3","9","10","40","30","120","77","22","[""Asian""]","No","Female","2055345","1191","i","learn","","","learn_trial","25","75","in","0","0","","","","","","","","","","","","","","","","","","","","",""
"","","","","","canvas-keyboard-response","25","141246","0.0-12.0-3.2","2d_cat_multi_stim_exp1","2022-5-2","14:44:57","25","75","3","9","10","40","30","120","77","22","[""Asian""]","No","Female","2055345","null","null","learn_feedback","","","learn_feedback","25","75","in","","","","","","","","","","","","","","","","","","","","","","",""
"","","","","","canvas-keyboard-response","26","141307","0.0-12.0-4.2","2d_cat_multi_stim_exp1","2022-5-2","14:44:57","25","75","3","9","10","40","30","120","77","22","[""Asian""]","No","Female","2055345","null","null","","","","clear_screen","","","","","","","","","","","","","","","","","","","","","","","","","",""
"","","","","","canvas-keyboard-response","27","141818","0.0-12.0-0.3","2d_cat_multi_stim_exp1","2022-5-2","14:44:57","25","75","3","9","10","40","30","120","77","22","[""Asian""]","No","Female","2055345","null","null","","","","fixation","","","","","","","","","","","","","","","","","","","","","","","","","",""
"","","","","","canvas-keyboard-response","28","142330","0.0-12.0-1.3","2d_cat_multi_stim_exp1","2022-5-2","14:44:57","25","75","3","9","10","40","30","120","77","22","[""Asian""]","No","Female","2055345","null","null","","","","clear_screen","","","","","","","","","","","","","","","","","","","","","","","","","",""
"","","","","","canvas-keyboard-response","29","143153","0.0-12.0-2.3","2d_cat_multi_stim_exp1","2022-5-2","14:44:57","25","75","3","9","10","40","30","120","77","22","[""Asian""]","No","Female","2055345","815","i","learn","","","learn_trial","23.3473","67.4888","in","0","0","","","","","","","","","","","","","","","","","","","","",""
"","","","","","canvas-keyboard-response","30","144164","0.0-12.0-3.3","2d_cat_multi_stim_exp1","2022-5-2","14:44:57","25","75","3","9","10","40","30","120","77","22","[""Asian""]","No","Female","2055345","null","null","learn_feedback","","","learn_feedback","23.3473","67.4888","in","","","","","","","","","","","","","","","","","","","","","","",""
"","","","","","canvas-keyboard-response","31","144227","0.0-12.0-4.3","2d_cat_multi_stim_exp1","2022-5-2","14:44:57","25","75","3","9","10","40","30","120","77","22","[""Asian""]","No","Female","2055345","null","null","","","","clear_screen","","","","","","","","","","","","","","","","","","","","","","","","","",""
"","","","","","canvas-keyboard-response","32","144736","0.0-12.0-0.4","2d_cat_multi_stim_exp1","2022-5-2","14:44:57","25","75","3","9","10","40","30","120","77","22","[""Asian""]","No","Female","2055345","null","null","","","","fixation","","","","","","","","","","","","","","","","","","","","","","","","","",""
"","","","","","canvas-keyboard-response","33","145246","0.0-12.0-1.4","2d_cat_multi_stim_exp1","2022-5-2","14:44:57","25","75","3","9","10","40","30","120","77","22","[""Asian""]","No","Female","2055345","null","null","","","","clear_screen","","","","","","","","","","","","","","","","","","","","","","","","","",""
"","","","","","canvas-keyboard-response","34","146017","0.0-12.0-2.4","2d_cat_multi_stim_exp1","2022-5-2","14:44:57","25","75","3","9","10","40","30","120","77","22","[""Asian""]","No","Female","2055345","763","u","learn","","","learn_trial","25","75","in","1","1","","","","","","","","","","","","","","","","","","","","",""
"","","","","","canvas-keyboard-response","35","146529","0.0-12.0-3.4","2d_cat_multi_stim_exp1","2022-5-2","14:44:57","25","75","3","9","10","40","30","120","77","22","[""Asian""]","No","Female","2055345","null","null","learn_feedback","","","learn_feedback","25","75","in","","","","","","","","","","","","","","","","","","","","","","",""
"","","","","","canvas-keyboard-response","36","146590","0.0-12.0-4.4","2d_cat_multi_stim_exp1","2022-5-2","14:44:57","25","75","3","9","10","40","30","120","77","22","[""Asian""]","No","Female","2055345","null","null","","","","clear_screen","","","","","","","","","","","","","","","","","","","","","","","","","",""
"","","","","","canvas-keyboard-response","37","147100","0.0-12.0-0.5","2d_cat_multi_stim_exp1","2022-5-2","14:44:57","25","75","3","9","10","40","30","120","77","22","[""Asian""]","No","Female","2055345","null","null","","","","fixation","","","","","","","","","","","","","","","","","","","","","","","","","",""
"","","","","","canvas-keyboard-response","38","147609","0.0-12.0-1.5","2d_cat_multi_stim_exp1","2022-5-2","14:44:57","25","75","3","9","10","40","30","120","77","22","[""Asian""]","No","Female","2055345","null","null","","","","clear_screen","","","","","","","","","","","","","","","","","","","","","","","","","",""
"","","","","","canvas-keyboard-response","39","148705","0.0-12.0-2.5","2d_cat_multi_stim_exp1","2022-5-2","14:44:57","25","75","3","9","10","40","30","120","77","22","[""Asian""]","No","Female","2055345","1085","u","learn","","","learn_trial","25","75","in","1","1","","","","","","","","","","","","","","","","","","","","",""
"","","","","","canvas-keyboard-response","40","149216","0.0-12.0-3.5","2d_cat_multi_stim_exp1","2022-5-2","14:44:57","25","75","3","9","10","40","30","120","77","22","[""Asian""]","No","Female","2055345","null","null","learn_feedback","","","learn_feedback","25","75","in","","","","","","","","","","","","","","","","","","","","","","",""
"","","","","","canvas-keyboard-response","41","149275","0.0-12.0-4.5","2d_cat_multi_stim_exp1","2022-5-2","14:44:57","25","75","3","9","10","40","30","120","77","22","[""Asian""]","No","Female","2055345","null","null","","","","clear_screen","","","","","","","","","","","","","","","","","","","","","","","","","",""
"","","","","","canvas-keyboard-response","42","149785","0.0-12.0-0.6","2d_cat_multi_stim_exp1","2022-5-2","14:44:57","25","75","3","9","10","40","30","120","77","22","[""Asian""]","No","Female","2055345","null","null","","","","fixation","","","","","","","","","","","","","","","","","","","","","","","","","",""
"","","","","","canvas-keyboard-response","43","150297","0.0-12.0-1.6","2d_cat_multi_stim_exp1","2022-5-2","14:44:57","25","75","3","9","10","40","30","120","77","22","[""Asian""]","No","Female","2055345","null","null","","","","clear_screen","","","","","","","","","","","","","","","","","","","","","","","","","",""
"","","","","","canvas-keyboard-response","44","151096","0.0-12.0-2.6","2d_cat_multi_stim_exp1","2022-5-2","14:44:57","25","75","3","9","10","40","30","120","77","22","[""Asian""]","No","Female","2055345","789","u","learn","","","learn_trial","36.6667","70","out","1","0","","","","","","","","","","","","","","","","","","","","",""
"","","","","","canvas-keyboard-response","45","152106","0.0-12.0-3.6","2d_cat_multi_stim_exp1","2022-5-2","14:44:57","25","75","3","9","10","40","30","120","77","22","[""Asian""]","No","Female","2055345","null","null","learn_feedback","","","learn_feedback","36.6667","70","out","","","","","","","","","","","","","","","","","","","","","","",""
"","","","","","canvas-keyboard-response","46","152168","0.0-12.0-4.6","2d_cat_multi_stim_exp1","2022-5-2","14:44:57","25","75","3","9","10","40","30","120","77","22","[""Asian""]","No","Female","2055345","null","null","","","","clear_screen","","","","","","","","","","","","","","","","","","","","","","","","","",""
"","","","","","canvas-keyboard-response","47","152676","0.0-12.0-0.7","2d_cat_multi_stim_exp1","2022-5-2","14:44:57","25","75","3","9","10","40","30","120","77","22","[""Asian""]","No","Female","2055345","null","null","","","","fixation","","","","","","","","","","","","","","","","","","","","","","","","","",""
"","","","","","canvas-keyboard-response","48","153186","0.0-12.0-1.7","2d_cat_multi_stim_exp1","2022-5-2","14:44:57","25","75","3","9","10","40","30","120","77","22","[""Asian""]","No","Female","2055345","null","null","","","","clear_screen","","","","","","","","","","","","","","","","","","","","","","","","","",""
"","","","","","canvas-keyboard-response","49","153633","0.0-12.0-2.7","2d_cat_multi_stim_exp1","2022-5-2","14:44:57","25","75","3","9","10","40","30","120","77","22","[""Asian""]","No","Female","2055345","436","i","learn","","","learn_trial","30","100","out","0","1","","","","","","","","","","","","","","","","","","","","",""
"","","","","","canvas-keyboard-response","50","154145","0.0-12.0-3.7","2d_cat_multi_stim_exp1","2022-5-2","14:44:57","25","75","3","9","10","40","30","120","77","22","[""Asian""]","No","Female","2055345","null","null","learn_feedback","","","learn_feedback","30","100","out","","","","","","","","","","","","","","","","","","","","","","",""
"","","","","","canvas-keyboard-response","51","154207","0.0-12.0-4.7","2d_cat_multi_stim_exp1","2022-5-2","14:44:57","25","75","3","9","10","40","30","120","77","22","[""Asian""]","No","Female","2055345","null","null","","","","clear_screen","","","","","","","","","","","","","","","","","","","","","","","","","",""
"","","","","","canvas-keyboard-response","52","154714","0.0-12.0-0.8","2d_cat_multi_stim_exp1","2022-5-2","14:44:57","25","75","3","9","10","40","30","120","77","22","[""Asian""]","No","Female","2055345","null","null","","","","fixation","","","","","","","","","","","","","","","","","","","","","","","","","",""
"","","","","","canvas-keyboard-response","53","155225","0.0-12.0-1.8","2d_cat_multi_stim_exp1","2022-5-2","14:44:57","25","75","3","9","10","40","30","120","77","22","[""Asian""]","No","Female","2055345","null","null","","","","clear_screen","","","","","","","","","","","","","","","","","","","","","","","","","",""
"","","","","","canvas-keyboard-response","54","155976","0.0-12.0-2.8","2d_cat_multi_stim_exp1","2022-5-2","14:44:57","25","75","3","9","10","40","30","120","77","22","[""Asian""]","No","Female","2055345","744","i","learn","","","learn_trial","23.3473","82.5112","in","0","0","","","","","","","","","","","","","","","","","","","","",""
"","","","","","canvas-keyboard-response","55","156986","0.0-12.0-3.8","2d_cat_multi_stim_exp1","2022-5-2","14:44:57","25","75","3","9","10","40","30","120","77","22","[""Asian""]","No","Female","2055345","null","null","learn_feedback","","","learn_feedback","23.3473","82.5112","in","","","","","","","","","","","","","","","","","","","","","","",""
"","","","","","canvas-keyboard-response","56","157047","0.0-12.0-4.8","2d_cat_multi_stim_exp1","2022-5-2","14:44:57","25","75","3","9","10","40","30","120","77","22","[""Asian""]","No","Female","2055345","null","null","","","","clear_screen","","","","","","","","","","","","","","","","","","","","","","","","","",""
"","","","","","canvas-keyboard-response","57","157555","0.0-12.0-0.9","2d_cat_multi_stim_exp1","2022-5-2","14:44:57","25","75","3","9","10","40","30","120","77","22","[""Asian""]","No","Female","2055345","null","null","","","","fixation","","","","","","","","","","","","","","","","","","","","","","","","","",""
"","","","","","canvas-keyboard-response","58","158064","0.0-12.0-1.9","2d_cat_multi_stim_exp1","2022-5-2","14:44:57","25","75","3","9","10","40","30","120","77","22","[""Asian""]","No","Female","2055345","null","null","","","","clear_screen","","","","","","","","","","","","","","","","","","","","","","","","","",""
"","","","","","canvas-keyboard-response","59","158360","0.0-12.0-2.9","2d_cat_multi_stim_exp1","2022-5-2","14:44:57","25","75","3","9","10","40","30","120","77","22","[""Asian""]","No","Female","2055345","287","u","learn","","","learn_trial","24.3324","66.2256","in","1","1","","","","","","","","","","","","","","","","","","","","",""
"","","","","","canvas-keyboard-response","60","158873","0.0-12.0-3.9","2d_cat_multi_stim_exp1","2022-5-2","14:44:57","25","75","3","9","10","40","30","120","77","22","[""Asian""]","No","Female","2055345","null","null","learn_feedback","","","learn_feedback","24.3324","66.2256","in","","","","","","","","","","","","","","","","","","","","","","",""
"","","","","","canvas-keyboard-response","61","158934","0.0-12.0-4.9","2d_cat_multi_stim_exp1","2022-5-2","14:44:57","25","75","3","9","10","40","30","120","77","22","[""Asian""]","No","Female","2055345","null","null","","","","clear_screen","","","","","","","","","","","","","","","","","","","","","","","","","",""
"","","","","","canvas-keyboard-response","62","159442","0.0-12.0-0.10","2d_cat_multi_stim_exp1","2022-5-2","14:44:57","25","75","3","9","10","40","30","120","77","22","[""Asian""]","No","Female","2055345","null","null","","","","fixation","","","","","","","","","","","","","","","","","","","","","","","","","",""
"","","","","","canvas-keyboard-response","63","159953","0.0-12.0-1.10","2d_cat_multi_stim_exp1","2022-5-2","14:44:57","25","75","3","9","10","40","30","120","77","22","[""Asian""]","No","Female","2055345","null","null","","","","clear_screen","","","","","","","","","","","","","","","","","","","","","","","","","",""
"","","","","","canvas-keyboard-response","64","160512","0.0-12.0-2.10","2d_cat_multi_stim_exp1","2022-5-2","14:44:57","25","75","3","9","10","40","30","120","77","22","[""Asian""]","No","Female","2055345","551","u","learn","","","learn_trial","25","75","in","1","1","","","","","","","","","","","","","","","","","","","","",""
"","","","","","canvas-keyboard-response","65","161021","0.0-12.0-3.10","2d_cat_multi_stim_exp1","2022-5-2","14:44:57","25","75","3","9","10","40","30","120","77","22","[""Asian""]","No","Female","2055345","null","null","learn_feedback","","","learn_feedback","25","75","in","","","","","","","","","","","","","","","","","","","","","","",""
"","","","","","canvas-keyboard-response","66","161080","0.0-12.0-4.10","2d_cat_multi_stim_exp1","2022-5-2","14:44:57","25","75","3","9","10","40","30","120","77","22","[""Asian""]","No","Female","2055345","null","null","","","","clear_screen","","","","","","","","","","","","","","","","","","","","","","","","","",""
"","","","","","canvas-keyboard-response","67","161592","0.0-12.0-0.11","2d_cat_multi_stim_exp1","2022-5-2","14:44:57","25","75","3","9","10","40","30","120","77","22","[""Asian""]","No","Female","2055345","null","null","","","","fixation","","","","","","","","","","","","","","","","","","","","","","","","","",""
"","","","","","canvas-keyboard-response","68","162105","0.0-12.0-1.11","2d_cat_multi_stim_exp1","2022-5-2","14:44:57","25","75","3","9","10","40","30","120","77","22","[""Asian""]","No","Female","2055345","null","null","","","","clear_screen","","","","","","","","","","","","","","","","","","","","","","","","","",""
"","","","","","canvas-keyboard-response","69","162520","0.0-12.0-2.11","2d_cat_multi_stim_exp1","2022-5-2","14:44:57","25","75","3","9","10","40","30","120","77","22","[""Asian""]","No","Female","2055345","404","u","learn","","","learn_trial","25","75","in","1","1","","","","","","","","","","","","","","","","","","","","",""
"","","","","","canvas-keyboard-response","70","163030","0.0-12.0-3.11","2d_cat_multi_stim_exp1","2022-5-2","14:44:57","25","75","3","9","10","40","30","120","77","22","[""Asian""]","No","Female","2055345","null","null","learn_feedback","","","learn_feedback","25","75","in","","","","","","","","","","","","","","","","","","","","","","",""
"","","","","","canvas-keyboard-response","71","163093","0.0-12.0-4.11","2d_cat_multi_stim_exp1","2022-5-2","14:44:57","25","75","3","9","10","40","30","120","77","22","[""Asian""]","No","Female","2055345","null","null","","","","clear_screen","","","","","","","","","","","","","","","","","","","","","","","","","",""
"","","","","","canvas-keyboard-response","72","163601","0.0-12.0-0.12","2d_cat_multi_stim_exp1","2022-5-2","14:44:57","25","75","3","9","10","40","30","120","77","22","[""Asian""]","No","Female","2055345","null","null","","","","fixation","","","","","","","","","","","","","","","","","","","","","","","","","",""
"","","","","","canvas-keyboard-response","73","164112","0.0-12.0-1.12","2d_cat_multi_stim_exp1","2022-5-2","14:44:57","25","75","3","9","10","40","30","120","77","22","[""Asian""]","No","Female","2055345","null","null","","","","clear_screen","","","","","","","","","","","","","","","","","","","","","","","","","",""
"","","","","","canvas-keyboard-response","74","164489","0.0-12.0-2.12","2d_cat_multi_stim_exp1","2022-5-2","14:44:57","25","75","3","9","10","40","30","120","77","22","[""Asian""]","No","Female","2055345","368","i","learn","","","learn_trial","10","120","out","0","1","","","","","","","","","","","","","","","","","","","","",""
"","","","","","canvas-keyboard-response","75","164998","0.0-12.0-3.12","2d_cat_multi_stim_exp1","2022-5-2","14:44:57","25","75","3","9","10","40","30","120","77","22","[""Asian""]","No","Female","2055345","null","null","learn_feedback","","","learn_feedback","10","120","out","","","","","","","","","","","","","","","","","","","","","","",""
"","","","","","canvas-keyboard-response","76","165058","0.0-12.0-4.12","2d_cat_multi_stim_exp1","2022-5-2","14:44:57","25","75","3","9","10","40","30","120","77","22","[""Asian""]","No","Female","2055345","null","null","","","","clear_screen","","","","","","","","","","","","","","","","","","","","","","","","","",""
"","","","","","canvas-keyboard-response","77","165566","0.0-12.0-0.13","2d_cat_multi_stim_exp1","2022-5-2","14:44:57","25","75","3","9","10","40","30","120","77","22","[""Asian""]","No","Female","2055345","null","null","","","","fixation","","","","","","","","","","","","","","","","","","","","","","","","","",""
"","","","","","canvas-keyboard-response","78","166079","0.0-12.0-1.13","2d_cat_multi_stim_exp1","2022-5-2","14:44:57","25","75","3","9","10","40","30","120","77","22","[""Asian""]","No","Female","2055345","null","null","","","","clear_screen","","","","","","","","","","","","","","","","","","","","","","","","","",""
"","","","","","canvas-keyboard-response","79","166466","0.0-12.0-2.13","2d_cat_multi_stim_exp1","2022-5-2","14:44:57","25","75","3","9","10","40","30","120","77","22","[""Asian""]","No","Female","2055345","378","i","learn","","","learn_trial","30","30","out","0","1","","","","","","","","","","","","","","","","","","","","",""
"","","","","","canvas-keyboard-response","80","166975","0.0-12.0-3.13","2d_cat_multi_stim_exp1","2022-5-2","14:44:57","25","75","3","9","10","40","30","120","77","22","[""Asian""]","No","Female","2055345","null","null","learn_feedback","","","learn_feedback","30","30","out","","","","","","","","","","","","","","","","","","","","","","",""
"","","","","","canvas-keyboard-response","81","167038","0.0-12.0-4.13","2d_cat_multi_stim_exp1","2022-5-2","14:44:57","25","75","3","9","10","40","30","120","77","22","[""Asian""]","No","Female","2055345","null","null","","","","clear_screen","","","","","","","","","","","","","","","","","","","","","","","","","",""
"","","","","","canvas-keyboard-response","82","167548","0.0-12.0-0.14","2d_cat_multi_stim_exp1","2022-5-2","14:44:57","25","75","3","9","10","40","30","120","77","22","[""Asian""]","No","Female","2055345","null","null","","","","fixation","","","","","","","","","","","","","","","","","","","","","","","","","",""
"","","","","","canvas-keyboard-response","83","168059","0.0-12.0-1.14","2d_cat_multi_stim_exp1","2022-5-2","14:44:57","25","75","3","9","10","40","30","120","77","22","[""Asian""]","No","Female","2055345","null","null","","","","clear_screen","","","","","","","","","","","","","","","","","","","","","","","","","",""
"","","","","","canvas-keyboard-response","84","168905","0.0-12.0-2.14","2d_cat_multi_stim_exp1","2022-5-2","14:44:57","25","75","3","9","10","40","30","120","77","22","[""Asian""]","No","Female","2055345","837","u","learn","","","learn_trial","36.6667","60","out","1","0","","","","","","","","","","","","","","","","","","","","",""
"","","","","","canvas-keyboard-response","85","169917","0.0-12.0-3.14","2d_cat_multi_stim_exp1","2022-5-2","14:44:57","25","75","3","9","10","40","30","120","77","22","[""Asian""]","No","Female","2055345","null","null","learn_feedback","","","learn_feedback","36.6667","60","out","","","","","","","","","","","","","","","","","","","","","","",""
"","","","","","canvas-keyboard-response","86","169979","0.0-12.0-4.14","2d_cat_multi_stim_exp1","2022-5-2","14:44:57","25","75","3","9","10","40","30","120","77","22","[""Asian""]","No","Female","2055345","null","null","","","","clear_screen","","","","","","","","","","","","","","","","","","","","","","","","","",""
"","","","","","canvas-keyboard-response","87","170488","0.0-12.0-0.15","2d_cat_multi_stim_exp1","2022-5-2","14:44:57","25","75","3","9","10","40","30","120","77","22","[""Asian""]","No","Female","2055345","null","null","","","","fixation","","","","","","","","","","","","","","","","","","","","","","","","","",""
"","","","","","canvas-keyboard-response","88","170998","0.0-12.0-1.15","2d_cat_multi_stim_exp1","2022-5-2","14:44:57","25","75","3","9","10","40","30","120","77","22","[""Asian""]","No","Female","2055345","null","null","","","","clear_screen","","","","","","","","","","","","","","","","","","","","","","","","","",""
"","","","","","canvas-keyboard-response","89","171290","0.0-12.0-2.15","2d_cat_multi_stim_exp1","2022-5-2","14:44:57","25","75","3","9","10","40","30","120","77","22","[""Asian""]","No","Female","2055345","282","u","learn","","","learn_trial","25","75","in","1","1","","","","","","","","","","","","","","","","","","","","",""
"","","","","","canvas-keyboard-response","90","171801","0.0-12.0-3.15","2d_cat_multi_stim_exp1","2022-5-2","14:44:57","25","75","3","9","10","40","30","120","77","22","[""Asian""]","No","Female","2055345","null","null","learn_feedback","","","learn_feedback","25","75","in","","","","","","","","","","","","","","","","","","","","","","",""
"","","","","","canvas-keyboard-response","91","171865","0.0-12.0-4.15","2d_cat_multi_stim_exp1","2022-5-2","14:44:57","25","75","3","9","10","40","30","120","77","22","[""Asian""]","No","Female","2055345","null","null","","","","clear_screen","","","","","","","","","","","","","","","","","","","","","","","","","",""
"","","","","","canvas-keyboard-response","92","172374","0.0-12.0-0.16","2d_cat_multi_stim_exp1","2022-5-2","14:44:57","25","75","3","9","10","40","30","120","77","22","[""Asian""]","No","Female","2055345","null","null","","","","fixation","","","","","","","","","","","","","","","","","","","","","","","","","",""
"","","","","","canvas-keyboard-response","93","172889","0.0-12.0-1.16","2d_cat_multi_stim_exp1","2022-5-2","14:44:57","25","75","3","9","10","40","30","120","77","22","[""Asian""]","No","Female","2055345","null","null","","","","clear_screen","","","","","","","","","","","","","","","","","","","","","","","","","",""
"","","","","","canvas-keyboard-response","94","173336","0.0-12.0-2.16","2d_cat_multi_stim_exp1","2022-5-2","14:44:57","25","75","3","9","10","40","30","120","77","22","[""Asian""]","No","Female","2055345","440","u","learn","","","learn_trial","26.6667","100","out","1","0","","","","","","","","","","","","","","","","","","","","",""
"","","","","","canvas-keyboard-response","95","174347","0.0-12.0-3.16","2d_cat_multi_stim_exp1","2022-5-2","14:44:57","25","75","3","9","10","40","30","120","77","22","[""Asian""]","No","Female","2055345","null","null","learn_feedback","","","learn_feedback","26.6667","100","out","","","","","","","","","","","","","","","","","","","","","","",""
"","","","","","canvas-keyboard-response","96","174406","0.0-12.0-4.16","2d_cat_multi_stim_exp1","2022-5-2","14:44:57","25","75","3","9","10","40","30","120","77","22","[""Asian""]","No","Female","2055345","null","null","","","","clear_screen","","","","","","","","","","","","","","","","","","","","","","","","","",""
"","","","","","canvas-keyboard-response","97","174915","0.0-12.0-0.17","2d_cat_multi_stim_exp1","2022-5-2","14:44:57","25","75","3","9","10","40","30","120","77","22","[""Asian""]","No","Female","2055345","null","null","","","","fixation","","","","","","","","","","","","","","","","","","","","","","","","","",""
"","","","","","canvas-keyboard-response","98","175425","0.0-12.0-1.17","2d_cat_multi_stim_exp1","2022-5-2","14:44:57","25","75","3","9","10","40","30","120","77","22","[""Asian""]","No","Female","2055345","null","null","","","","clear_screen","","","","","","","","","","","","","","","","","","","","","","","","","",""
"","","","","","canvas-keyboard-response","99","175722","0.0-12.0-2.17","2d_cat_multi_stim_exp1","2022-5-2","14:44:57","25","75","3","9","10","40","30","120","77","22","[""Asian""]","No","Female","2055345","284","i","learn","","","learn_trial","20","110","out","0","1","","","","","","","","","","","","","","","","","","","","",""
"","","","","","canvas-keyboard-response","100","176232","0.0-12.0-3.17","2d_cat_multi_stim_exp1","2022-5-2","14:44:57","25","75","3","9","10","40","30","120","77","22","[""Asian""]","No","Female","2055345","null","null","learn_feedback","","","learn_feedback","20","110","out","","","","","","","","","","","","","","","","","","","","","","",""
"","","","","","canvas-keyboard-response","101","176291","0.0-12.0-4.17","2d_cat_multi_stim_exp1","2022-5-2","14:44:57","25","75","3","9","10","40","30","120","77","22","[""Asian""]","No","Female","2055345","null","null","","","","clear_screen","","","","","","","","","","","","","","","","","","","","","","","","","",""
"","","","","","canvas-keyboard-response","102","176800","0.0-12.0-0.18","2d_cat_multi_stim_exp1","2022-5-2","14:44:57","25","75","3","9","10","40","30","120","77","22","[""Asian""]","No","Female","2055345","null","null","","","","fixation","","","","","","","","","","","","","","","","","","","","","","","","","",""
"","","","","","canvas-keyboard-response","103","177314","0.0-12.0-1.18","2d_cat_multi_stim_exp1","2022-5-2","14:44:57","25","75","3","9","10","40","30","120","77","22","[""Asian""]","No","Female","2055345","null","null","","","","clear_screen","","","","","","","","","","","","","","","","","","","","","","","","","",""
"","","","","","canvas-keyboard-response","104","177785","0.0-12.0-2.18","2d_cat_multi_stim_exp1","2022-5-2","14:44:57","25","75","3","9","10","40","30","120","77","22","[""Asian""]","No","Female","2055345","461","u","learn","","","learn_trial","26.6667","90","out","1","0","","","","","","","","","","","","","","","","","","","","",""
"","","","","","canvas-keyboard-response","105","178796","0.0-12.0-3.18","2d_cat_multi_stim_exp1","2022-5-2","14:44:57","25","75","3","9","10","40","30","120","77","22","[""Asian""]","No","Female","2055345","null","null","learn_feedback","","","learn_feedback","26.6667","90","out","","","","","","","","","","","","","","","","","","","","","","",""
"","","","","","canvas-keyboard-response","106","178855","0.0-12.0-4.18","2d_cat_multi_stim_exp1","2022-5-2","14:44:57","25","75","3","9","10","40","30","120","77","22","[""Asian""]","No","Female","2055345","null","null","","","","clear_screen","","","","","","","","","","","","","","","","","","","","","","","","","",""
"","","","","","canvas-keyboard-response","107","179364","0.0-12.0-0.19","2d_cat_multi_stim_exp1","2022-5-2","14:44:57","25","75","3","9","10","40","30","120","77","22","[""Asian""]","No","Female","2055345","null","null","","","","fixation","","","","","","","","","","","","","","","","","","","","","","","","","",""
"","","","","","canvas-keyboard-response","108","179875","0.0-12.0-1.19","2d_cat_multi_stim_exp1","2022-5-2","14:44:57","25","75","3","9","10","40","30","120","77","22","[""Asian""]","No","Female","2055345","null","null","","","","clear_screen","","","","","","","","","","","","","","","","","","","","","","","","","",""
"","","","","","canvas-keyboard-response","109","180153","0.0-12.0-2.19","2d_cat_multi_stim_exp1","2022-5-2","14:44:57","25","75","3","9","10","40","30","120","77","22","[""Asian""]","No","Female","2055345","271","i","learn","","","learn_trial","25","75","in","0","0","","","","","","","","","","","","","","","","","","","","",""
"","","","","","canvas-keyboard-response","110","181161","0.0-12.0-3.19","2d_cat_multi_stim_exp1","2022-5-2","14:44:57","25","75","3","9","10","40","30","120","77","22","[""Asian""]","No","Female","2055345","null","null","learn_feedback","","","learn_feedback","25","75","in","","","","","","","","","","","","","","","","","","","","","","",""
"","","","","","canvas-keyboard-response","111","181220","0.0-12.0-4.19","2d_cat_multi_stim_exp1","2022-5-2","14:44:57","25","75","3","9","10","40","30","120","77","22","[""Asian""]","No","Female","2055345","null","null","","","","clear_screen","","","","","","","","","","","","","","","","","","","","","","","","","",""
"","","","","","canvas-keyboard-response","112","181729","0.0-12.0-0.20","2d_cat_multi_stim_exp1","2022-5-2","14:44:57","25","75","3","9","10","40","30","120","77","22","[""Asian""]","No","Female","2055345","null","null","","","","fixation","","","","","","","","","","","","","","","","","","","","","","","","","",""
"","","","","","canvas-keyboard-response","113","182241","0.0-12.0-1.20","2d_cat_multi_stim_exp1","2022-5-2","14:44:57","25","75","3","9","10","40","30","120","77","22","[""Asian""]","No","Female","2055345","null","null","","","","clear_screen","","","","","","","","","","","","","","","","","","","","","","","","","",""
"","","","","","canvas-keyboard-response","114","182250","0.0-12.0-2.20","2d_cat_multi_stim_exp1","2022-5-2","14:44:57","25","75","3","9","10","40","30","120","77","22","[""Asian""]","No","Female","2055345","0","u","learn","","","learn_trial","25","57","in","1","1","","","","","","","","","","","","","","","","","","","","",""
"","","","","","canvas-keyboard-response","115","182755","0.0-12.0-3.20","2d_cat_multi_stim_exp1","2022-5-2","14:44:57","25","75","3","9","10","40","30","120","77","22","[""Asian""]","No","Female","2055345","null","null","learn_feedback","","","learn_feedback","25","57","in","","","","","","","","","","","","","","","","","","","","","","",""
"","","","","","canvas-keyboard-response","116","182815","0.0-12.0-4.20","2d_cat_multi_stim_exp1","2022-5-2","14:44:57","25","75","3","9","10","40","30","120","77","22","[""Asian""]","No","Female","2055345","null","null","","","","clear_screen","","","","","","","","","","","","","","","","","","","","","","","","","",""
"","","","","","canvas-keyboard-response","117","183325","0.0-12.0-0.21","2d_cat_multi_stim_exp1","2022-5-2","14:44:57","25","75","3","9","10","40","30","120","77","22","[""Asian""]","No","Female","2055345","null","null","","","","fixation","","","","","","","","","","","","","","","","","","","","","","","","","",""
"","","","","","canvas-keyboard-response","118","183836","0.0-12.0-1.21","2d_cat_multi_stim_exp1","2022-5-2","14:44:57","25","75","3","9","10","40","30","120","77","22","[""Asian""]","No","Female","2055345","null","null","","","","clear_screen","","","","","","","","","","","","","","","","","","","","","","","","","",""
"","","","","","canvas-keyboard-response","119","184201","0.0-12.0-2.21","2d_cat_multi_stim_exp1","2022-5-2","14:44:57","25","75","3","9","10","40","30","120","77","22","[""Asian""]","No","Female","2055345","356","u","learn","","","learn_trial","13.3333","100","out","1","0","","","","","","","","","","","","","","","","","","","","",""
"","","","","","canvas-keyboard-response","120","185209","0.0-12.0-3.21","2d_cat_multi_stim_exp1","2022-5-2","14:44:57","25","75","3","9","10","40","30","120","77","22","[""Asian""]","No","Female","2055345","null","null","learn_feedback","","","learn_feedback","13.3333","100","out","","","","","","","","","","","","","","","","","","","","","","",""
"","","","","","canvas-keyboard-response","121","185271","0.0-12.0-4.21","2d_cat_multi_stim_exp1","2022-5-2","14:44:57","25","75","3","9","10","40","30","120","77","22","[""Asian""]","No","Female","2055345","null","null","","","","clear_screen","","","","","","","","","","","","","","","","","","","","","","","","","",""
"","","","","","canvas-keyboard-response","122","185778","0.0-12.0-0.22","2d_cat_multi_stim_exp1","2022-5-2","14:44:57","25","75","3","9","10","40","30","120","77","22","[""Asian""]","No","Female","2055345","null","null","","","","fixation","","","","","","","","","","","","","","","","","","","","","","","","","",""
"","","","","","canvas-keyboard-response","123","186293","0.0-12.0-1.22","2d_cat_multi_stim_exp1","2022-5-2","14:44:57","25","75","3","9","10","40","30","120","77","22","[""Asian""]","No","Female","2055345","null","null","","","","clear_screen","","","","","","","","","","","","","","","","","","","","","","","","","",""
"","","","","","canvas-keyboard-response","124","186704","0.0-12.0-2.22","2d_cat_multi_stim_exp1","2022-5-2","14:44:57","25","75","3","9","10","40","30","120","77","22","[""Asian""]","No","Female","2055345","401","i","learn","","","learn_trial","36.6667","30","out","0","1","","","","","","","","","","","","","","","","","","","","",""
"","","","","","canvas-keyboard-response","125","187214","0.0-12.0-3.22","2d_cat_multi_stim_exp1","2022-5-2","14:44:57","25","75","3","9","10","40","30","120","77","22","[""Asian""]","No","Female","2055345","null","null","learn_feedback","","","learn_feedback","36.6667","30","out","","","","","","","","","","","","","","","","","","","","","","",""
"","","","","","canvas-keyboard-response","126","187273","0.0-12.0-4.22","2d_cat_multi_stim_exp1","2022-5-2","14:44:57","25","75","3","9","10","40","30","120","77","22","[""Asian""]","No","Female","2055345","null","null","","","","clear_screen","","","","","","","","","","","","","","","","","","","","","","","","","",""
"","","","","","canvas-keyboard-response","127","187782","0.0-12.0-0.23","2d_cat_multi_stim_exp1","2022-5-2","14:44:57","25","75","3","9","10","40","30","120","77","22","[""Asian""]","No","Female","2055345","null","null","","","","fixation","","","","","","","","","","","","","","","","","","","","","","","","","",""
"","","","","","canvas-keyboard-response","128","188295","0.0-12.0-1.23","2d_cat_multi_stim_exp1","2022-5-2","14:44:57","25","75","3","9","10","40","30","120","77","22","[""Asian""]","No","Female","2055345","null","null","","","","clear_screen","","","","","","","","","","","","","","","","","","","","","","","","","",""
"","","","","","canvas-keyboard-response","129","189097","0.0-12.0-2.23","2d_cat_multi_stim_exp1","2022-5-2","14:44:57","25","75","3","9","10","40","30","120","77","22","[""Asian""]","No","Female","2055345","792","u","learn","","","learn_trial","25","75","in","1","1","","","","","","","","","","","","","","","","","","","","",""
"","","","","","canvas-keyboard-response","130","189608","0.0-12.0-3.23","2d_cat_multi_stim_exp1","2022-5-2","14:44:57","25","75","3","9","10","40","30","120","77","22","[""Asian""]","No","Female","2055345","null","null","learn_feedback","","","learn_feedback","25","75","in","","","","","","","","","","","","","","","","","","","","","","",""
"","","","","","canvas-keyboard-response","131","189667","0.0-12.0-4.23","2d_cat_multi_stim_exp1","2022-5-2","14:44:57","25","75","3","9","10","40","30","120","77","22","[""Asian""]","No","Female","2055345","null","null","","","","clear_screen","","","","","","","","","","","","","","","","","","","","","","","","","",""
"","","","","","canvas-keyboard-response","132","190174","0.0-12.0-0.24","2d_cat_multi_stim_exp1","2022-5-2","14:44:57","25","75","3","9","10","40","30","120","77","22","[""Asian""]","No","Female","2055345","null","null","","","","fixation","","","","","","","","","","","","","","","","","","","","","","","","","",""
"","","","","","canvas-keyboard-response","133","190685","0.0-12.0-1.24","2d_cat_multi_stim_exp1","2022-5-2","14:44:57","25","75","3","9","10","40","30","120","77","22","[""Asian""]","No","Female","2055345","null","null","","","","clear_screen","","","","","","","","","","","","","","","","","","","","","","","","","",""
"","","","","","canvas-keyboard-response","134","191185","0.0-12.0-2.24","2d_cat_multi_stim_exp1","2022-5-2","14:44:57","25","75","3","9","10","40","30","120","77","22","[""Asian""]","No","Female","2055345","489","u","learn","","","learn_trial","23.3333","100","out","1","0","","","","","","","","","","","","","","","","","","","","",""
"","","","","","canvas-keyboard-response","135","192194","0.0-12.0-3.24","2d_cat_multi_stim_exp1","2022-5-2","14:44:57","25","75","3","9","10","40","30","120","77","22","[""Asian""]","No","Female","2055345","null","null","learn_feedback","","","learn_feedback","23.3333","100","out","","","","","","","","","","","","","","","","","","","","","","",""
"","","","","","canvas-keyboard-response","136","192256","0.0-12.0-4.24","2d_cat_multi_stim_exp1","2022-5-2","14:44:57","25","75","3","9","10","40","30","120","77","22","[""Asian""]","No","Female","2055345","null","null","","","","clear_screen","","","","","","","","","","","","","","","","","","","","","","","","","",""
"","","","","","canvas-keyboard-response","137","192766","0.0-12.0-0.25","2d_cat_multi_stim_exp1","2022-5-2","14:44:57","25","75","3","9","10","40","30","120","77","22","[""Asian""]","No","Female","2055345","null","null","","","","fixation","","","","","","","","","","","","","","","","","","","","","","","","","",""
"","","","","","canvas-keyboard-response","138","193274","0.0-12.0-1.25","2d_cat_multi_stim_exp1","2022-5-2","14:44:57","25","75","3","9","10","40","30","120","77","22","[""Asian""]","No","Female","2055345","null","null","","","","clear_screen","","","","","","","","","","","","","","","","","","","","","","","","","",""
"","","","","","canvas-keyboard-response","139","193568","0.0-12.0-2.25","2d_cat_multi_stim_exp1","2022-5-2","14:44:57","25","75","3","9","10","40","30","120","77","22","[""Asian""]","No","Female","2055345","289","i","learn","","","learn_trial","25","75","in","0","0","","","","","","","","","","","","","","","","","","","","",""
"","","","","","canvas-keyboard-response","140","194576","0.0-12.0-3.25","2d_cat_multi_stim_exp1","2022-5-2","14:44:57","25","75","3","9","10","40","30","120","77","22","[""Asian""]","No","Female","2055345","null","null","learn_feedback","","","learn_feedback","25","75","in","","","","","","","","","","","","","","","","","","","","","","",""
"","","","","","canvas-keyboard-response","141","194638","0.0-12.0-4.25","2d_cat_multi_stim_exp1","2022-5-2","14:44:57","25","75","3","9","10","40","30","120","77","22","[""Asian""]","No","Female","2055345","null","null","","","","clear_screen","","","","","","","","","","","","","","","","","","","","","","","","","",""
"","","","","","canvas-keyboard-response","142","195149","0.0-12.0-0.26","2d_cat_multi_stim_exp1","2022-5-2","14:44:57","25","75","3","9","10","40","30","120","77","22","[""Asian""]","No","Female","2055345","null","null","","","","fixation","","","","","","","","","","","","","","","","","","","","","","","","","",""
"","","","","","canvas-keyboard-response","143","195624","0.0-12.0-1.26","2d_cat_multi_stim_exp1","2022-5-2","14:44:57","25","75","3","9","10","40","30","120","77","22","[""Asian""]","No","Female","2055345","12","u","","","","clear_screen","","","","","","","","","","","","","","","","","","","","","","","","","",""
"","","","","","canvas-keyboard-response","144","196329","0.0-12.0-2.26","2d_cat_multi_stim_exp1","2022-5-2","14:44:57","25","75","3","9","10","40","30","120","77","22","[""Asian""]","No","Female","2055345","698","u","learn","","","learn_trial","25","75","in","1","1","","","","","","","","","","","","","","","","","","","","",""
"","","","","","canvas-keyboard-response","145","196839","0.0-12.0-3.26","2d_cat_multi_stim_exp1","2022-5-2","14:44:57","25","75","3","9","10","40","30","120","77","22","[""Asian""]","No","Female","2055345","null","null","learn_feedback","","","learn_feedback","25","75","in","","","","","","","","","","","","","","","","","","","","","","",""
"","","","","","canvas-keyboard-response","146","196897","0.0-12.0-4.26","2d_cat_multi_stim_exp1","2022-5-2","14:44:57","25","75","3","9","10","40","30","120","77","22","[""Asian""]","No","Female","2055345","null","null","","","","clear_screen","","","","","","","","","","","","","","","","","","","","","","","","","",""
"","","","","","canvas-keyboard-response","147","197409","0.0-12.0-0.27","2d_cat_multi_stim_exp1","2022-5-2","14:44:57","25","75","3","9","10","40","30","120","77","22","[""Asian""]","No","Female","2055345","null","null","","","","fixation","","","","","","","","","","","","","","","","","","","","","","","","","",""
"","","","","","canvas-keyboard-response","148","197923","0.0-12.0-1.27","2d_cat_multi_stim_exp1","2022-5-2","14:44:57","25","75","3","9","10","40","30","120","77","22","[""Asian""]","No","Female","2055345","null","null","","","","clear_screen","","","","","","","","","","","","","","","","","","","","","","","","","",""
"","","","","","canvas-keyboard-response","149","198649","0.0-12.0-2.27","2d_cat_multi_stim_exp1","2022-5-2","14:44:57","25","75","3","9","10","40","30","120","77","22","[""Asian""]","No","Female","2055345","716","u","learn","","","learn_trial","36.6667","90","out","1","0","","","","","","","","","","","","","","","","","","","","",""
"","","","","","canvas-keyboard-response","150","199660","0.0-12.0-3.27","2d_cat_multi_stim_exp1","2022-5-2","14:44:57","25","75","3","9","10","40","30","120","77","22","[""Asian""]","No","Female","2055345","null","null","learn_feedback","","","learn_feedback","36.6667","90","out","","","","","","","","","","","","","","","","","","","","","","",""
"","","","","","canvas-keyboard-response","151","199721","0.0-12.0-4.27","2d_cat_multi_stim_exp1","2022-5-2","14:44:57","25","75","3","9","10","40","30","120","77","22","[""Asian""]","No","Female","2055345","null","null","","","","clear_screen","","","","","","","","","","","","","","","","","","","","","","","","","",""
"","","","","","canvas-keyboard-response","152","200229","0.0-12.0-0.28","2d_cat_multi_stim_exp1","2022-5-2","14:44:57","25","75","3","9","10","40","30","120","77","22","[""Asian""]","No","Female","2055345","null","null","","","","fixation","","","","","","","","","","","","","","","","","","","","","","","","","",""
"","","","","","canvas-keyboard-response","153","200736","0.0-12.0-1.28","2d_cat_multi_stim_exp1","2022-5-2","14:44:57","25","75","3","9","10","40","30","120","77","22","[""Asian""]","No","Female","2055345","null","null","","","","clear_screen","","","","","","","","","","","","","","","","","","","","","","","","","",""
"","","","","","canvas-keyboard-response","154","201017","0.0-12.0-2.28","2d_cat_multi_stim_exp1","2022-5-2","14:44:57","25","75","3","9","10","40","30","120","77","22","[""Asian""]","No","Female","2055345","268","i","learn","","","learn_trial","25","75","in","0","0","","","","","","","","","","","","","","","","","","","","",""
"","","","","","canvas-keyboard-response","155","202025","0.0-12.0-3.28","2d_cat_multi_stim_exp1","2022-5-2","14:44:57","25","75","3","9","10","40","30","120","77","22","[""Asian""]","No","Female","2055345","null","null","learn_feedback","","","learn_feedback","25","75","in","","","","","","","","","","","","","","","","","","","","","","",""
"","","","","","canvas-keyboard-response","156","202085","0.0-12.0-4.28","2d_cat_multi_stim_exp1","2022-5-2","14:44:57","25","75","3","9","10","40","30","120","77","22","[""Asian""]","No","Female","2055345","null","null","","","","clear_screen","","","","","","","","","","","","","","","","","","","","","","","","","",""
"","","","","","canvas-keyboard-response","157","202592","0.0-12.0-0.29","2d_cat_multi_stim_exp1","2022-5-2","14:44:57","25","75","3","9","10","40","30","120","77","22","[""Asian""]","No","Female","2055345","null","null","","","","fixation","","","","","","","","","","","","","","","","","","","","","","","","","",""
"","","","","","canvas-keyboard-response","158","203102","0.0-12.0-1.29","2d_cat_multi_stim_exp1","2022-5-2","14:44:57","25","75","3","9","10","40","30","120","77","22","[""Asian""]","No","Female","2055345","null","null","","","","clear_screen","","","","","","","","","","","","","","","","","","","","","","","","","",""
"","","","","","canvas-keyboard-response","159","203377","0.0-12.0-2.29","2d_cat_multi_stim_exp1","2022-5-2","14:44:57","25","75","3","9","10","40","30","120","77","22","[""Asian""]","No","Female","2055345","266","u","learn","","","learn_trial","16.6667","40","out","1","0","","","","","","","","","","","","","","","","","","","","",""
"","","","","","canvas-keyboard-response","160","204386","0.0-12.0-3.29","2d_cat_multi_stim_exp1","2022-5-2","14:44:57","25","75","3","9","10","40","30","120","77","22","[""Asian""]","No","Female","2055345","null","null","learn_feedback","","","learn_feedback","16.6667","40","out","","","","","","","","","","","","","","","","","","","","","","",""
"","","","","","canvas-keyboard-response","161","204450","0.0-12.0-4.29","2d_cat_multi_stim_exp1","2022-5-2","14:44:57","25","75","3","9","10","40","30","120","77","22","[""Asian""]","No","Female","2055345","null","null","","","","clear_screen","","","","","","","","","","","","","","","","","","","","","","","","","",""
"","","","","","canvas-keyboard-response","162","204958","0.0-12.0-0.30","2d_cat_multi_stim_exp1","2022-5-2","14:44:57","25","75","3","9","10","40","30","120","77","22","[""Asian""]","No","Female","2055345","null","null","","","","fixation","","","","","","","","","","","","","","","","","","","","","","","","","",""
"","","","","","canvas-keyboard-response","163","205470","0.0-12.0-1.30","2d_cat_multi_stim_exp1","2022-5-2","14:44:57","25","75","3","9","10","40","30","120","77","22","[""Asian""]","No","Female","2055345","null","null","","","","clear_screen","","","","","","","","","","","","","","","","","","","","","","","","","",""
"","","","","","canvas-keyboard-response","164","205768","0.0-12.0-2.30","2d_cat_multi_stim_exp1","2022-5-2","14:44:57","25","75","3","9","10","40","30","120","77","22","[""Asian""]","No","Female","2055345","290","i","learn","","","learn_trial","25","75","in","0","0","","","","","","","","","","","","","","","","","","","","",""
"","","","","","canvas-keyboard-response","165","206776","0.0-12.0-3.30","2d_cat_multi_stim_exp1","2022-5-2","14:44:57","25","75","3","9","10","40","30","120","77","22","[""Asian""]","No","Female","2055345","null","null","learn_feedback","","","learn_feedback","25","75","in","","","","","","","","","","","","","","","","","","","","","","",""
"","","","","","canvas-keyboard-response","166","206840","0.0-12.0-4.30","2d_cat_multi_stim_exp1","2022-5-2","14:44:57","25","75","3","9","10","40","30","120","77","22","[""Asian""]","No","Female","2055345","null","null","","","","clear_screen","","","","","","","","","","","","","","","","","","","","","","","","","",""
"","","","","","canvas-keyboard-response","167","207349","0.0-12.0-0.31","2d_cat_multi_stim_exp1","2022-5-2","14:44:57","25","75","3","9","10","40","30","120","77","22","[""Asian""]","No","Female","2055345","null","null","","","","fixation","","","","","","","","","","","","","","","","","","","","","","","","","",""
"","","","","","canvas-keyboard-response","168","207863","0.0-12.0-1.31","2d_cat_multi_stim_exp1","2022-5-2","14:44:57","25","75","3","9","10","40","30","120","77","22","[""Asian""]","No","Female","2055345","null","null","","","","clear_screen","","","","","","","","","","","","","","","","","","","","","","","","","",""
"","","","","","canvas-keyboard-response","169","208049","0.0-12.0-2.31","2d_cat_multi_stim_exp1","2022-5-2","14:44:57","25","75","3","9","10","40","30","120","77","22","[""Asian""]","No","Female","2055345","177","u","learn","","","learn_trial","25","75","in","1","1","","","","","","","","","","","","","","","","","","","","",""
"","","","","","canvas-keyboard-response","170","208558","0.0-12.0-3.31","2d_cat_multi_stim_exp1","2022-5-2","14:44:57","25","75","3","9","10","40","30","120","77","22","[""Asian""]","No","Female","2055345","null","null","learn_feedback","","","learn_feedback","25","75","in","","","","","","","","","","","","","","","","","","","","","","",""
"","","","","","canvas-keyboard-response","171","208617","0.0-12.0-4.31","2d_cat_multi_stim_exp1","2022-5-2","14:44:57","25","75","3","9","10","40","30","120","77","22","[""Asian""]","No","Female","2055345","null","null","","","","clear_screen","","","","","","","","","","","","","","","","","","","","","","","","","",""
"","","","","","canvas-keyboard-response","172","209126","0.0-12.0-0.32","2d_cat_multi_stim_exp1","2022-5-2","14:44:57","25","75","3","9","10","40","30","120","77","22","[""Asian""]","No","Female","2055345","null","null","","","","fixation","","","","","","","","","","","","","","","","","","","","","","","","","",""
"","","","","","canvas-keyboard-response","173","209638","0.0-12.0-1.32","2d_cat_multi_stim_exp1","2022-5-2","14:44:57","25","75","3","9","10","40","30","120","77","22","[""Asian""]","No","Female","2055345","null","null","","","","clear_screen","","","","","","","","","","","","","","","","","","","","","","","","","",""
"","","","","","canvas-keyboard-response","174","210017","0.0-12.0-2.32","2d_cat_multi_stim_exp1","2022-5-2","14:44:57","25","75","3","9","10","40","30","120","77","22","[""Asian""]","No","Female","2055345","366","u","learn","","","learn_trial","20","50","out","1","0","","","","","","","","","","","","","","","","","","","","",""
"","","","","","canvas-keyboard-response","175","211026","0.0-12.0-3.32","2d_cat_multi_stim_exp1","2022-5-2","14:44:57","25","75","3","9","10","40","30","120","77","22","[""Asian""]","No","Female","2055345","null","null","learn_feedback","","","learn_feedback","20","50","out","","","","","","","","","","","","","","","","","","","","","","",""
"","","","","","canvas-keyboard-response","176","211089","0.0-12.0-4.32","2d_cat_multi_stim_exp1","2022-5-2","14:44:57","25","75","3","9","10","40","30","120","77","22","[""Asian""]","No","Female","2055345","null","null","","","","clear_screen","","","","","","","","","","","","","","","","","","","","","","","","","",""
"","","","","","canvas-keyboard-response","177","211598","0.0-12.0-0.33","2d_cat_multi_stim_exp1","2022-5-2","14:44:57","25","75","3","9","10","40","30","120","77","22","[""Asian""]","No","Female","2055345","null","null","","","","fixation","","","","","","","","","","","","","","","","","","","","","","","","","",""
"","","","","","canvas-keyboard-response","178","212107","0.0-12.0-1.33","2d_cat_multi_stim_exp1","2022-5-2","14:44:57","25","75","3","9","10","40","30","120","77","22","[""Asian""]","No","Female","2055345","null","null","","","","clear_screen","","","","","","","","","","","","","","","","","","","","","","","","","",""
"","","","","","canvas-keyboard-response","179","212257","0.0-12.0-2.33","2d_cat_multi_stim_exp1","2022-5-2","14:44:57","25","75","3","9","10","40","30","120","77","22","[""Asian""]","No","Female","2055345","141","i","learn","","","learn_trial","26.8705","67.9635","in","0","0","","","","","","","","","","","","","","","","","","","","",""
"","","","","","canvas-keyboard-response","180","213264","0.0-12.0-3.33","2d_cat_multi_stim_exp1","2022-5-2","14:44:57","25","75","3","9","10","40","30","120","77","22","[""Asian""]","No","Female","2055345","null","null","learn_feedback","","","learn_feedback","26.8705","67.9635","in","","","","","","","","","","","","","","","","","","","","","","",""
"","","","","","canvas-keyboard-response","181","213326","0.0-12.0-4.33","2d_cat_multi_stim_exp1","2022-5-2","14:44:57","25","75","3","9","10","40","30","120","77","22","[""Asian""]","No","Female","2055345","null","null","","","","clear_screen","","","","","","","","","","","","","","","","","","","","","","","","","",""
"","","","","","canvas-keyboard-response","182","213836","0.0-12.0-0.34","2d_cat_multi_stim_exp1","2022-5-2","14:44:57","25","75","3","9","10","40","30","120","77","22","[""Asian""]","No","Female","2055345","null","null","","","","fixation","","","","","","","","","","","","","","","","","","","","","","","","","",""
"","","","","","canvas-keyboard-response","183","214350","0.0-12.0-1.34","2d_cat_multi_stim_exp1","2022-5-2","14:44:57","25","75","3","9","10","40","30","120","77","22","[""Asian""]","No","Female","2055345","null","null","","","","clear_screen","","","","","","","","","","","","","","","","","","","","","","","","","",""
"","","","","","canvas-keyboard-response","184","214577","0.0-12.0-2.34","2d_cat_multi_stim_exp1","2022-5-2","14:44:57","25","75","3","9","10","40","30","120","77","22","[""Asian""]","No","Female","2055345","221","u","learn","","","learn_trial","10","100","out","1","0","","","","","","","","","","","","","","","","","","","","",""
"","","","","","canvas-keyboard-response","185","215586","0.0-12.0-3.34","2d_cat_multi_stim_exp1","2022-5-2","14:44:57","25","75","3","9","10","40","30","120","77","22","[""Asian""]","No","Female","2055345","null","null","learn_feedback","","","learn_feedback","10","100","out","","","","","","","","","","","","","","","","","","","","","","",""
"","","","","","canvas-keyboard-response","186","215646","0.0-12.0-4.34","2d_cat_multi_stim_exp1","2022-5-2","14:44:57","25","75","3","9","10","40","30","120","77","22","[""Asian""]","No","Female","2055345","null","null","","","","clear_screen","","","","","","","","","","","","","","","","","","","","","","","","","",""
"","","","","","canvas-keyboard-response","187","216156","0.0-12.0-0.35","2d_cat_multi_stim_exp1","2022-5-2","14:44:57","25","75","3","9","10","40","30","120","77","22","[""Asian""]","No","Female","2055345","null","null","","","","fixation","","","","","","","","","","","","","","","","","","","","","","","","","",""
"","","","","","canvas-keyboard-response","188","216660","0.0-12.0-1.35","2d_cat_multi_stim_exp1","2022-5-2","14:44:57","25","75","3","9","10","40","30","120","77","22","[""Asian""]","No","Female","2055345","null","null","","","","clear_screen","","","","","","","","","","","","","","","","","","","","","","","","","",""
"","","","","","canvas-keyboard-response","189","218480","0.0-12.0-2.35","2d_cat_multi_stim_exp1","2022-5-2","14:44:57","25","75","3","9","10","40","30","120","77","22","[""Asian""]","No","Female","2055345","1811","i","learn","","","learn_trial","33.3333","30","out","0","1","","","","","","","","","","","","","","","","","","","","",""
"","","","","","canvas-keyboard-response","190","218992","0.0-12.0-3.35","2d_cat_multi_stim_exp1","2022-5-2","14:44:57","25","75","3","9","10","40","30","120","77","22","[""Asian""]","No","Female","2055345","null","null","learn_feedback","","","learn_feedback","33.3333","30","out","","","","","","","","","","","","","","","","","","","","","","",""
"","","","","","canvas-keyboard-response","191","219051","0.0-12.0-4.35","2d_cat_multi_stim_exp1","2022-5-2","14:44:57","25","75","3","9","10","40","30","120","77","22","[""Asian""]","No","Female","2055345","null","null","","","","clear_screen","","","","","","","","","","","","","","","","","","","","","","","","","",""
"","","","","","canvas-keyboard-response","192","219559","0.0-12.0-0.36","2d_cat_multi_stim_exp1","2022-5-2","14:44:57","25","75","3","9","10","40","30","120","77","22","[""Asian""]","No","Female","2055345","null","null","","","","fixation","","","","","","","","","","","","","","","","","","","","","","","","","",""
"","","","","","canvas-keyboard-response","193","220073","0.0-12.0-1.36","2d_cat_multi_stim_exp1","2022-5-2","14:44:57","25","75","3","9","10","40","30","120","77","22","[""Asian""]","No","Female","2055345","null","null","","","","clear_screen","","","","","","","","","","","","","","","","","","","","","","","","","",""
"","","","","","canvas-keyboard-response","194","220761","0.0-12.0-2.36","2d_cat_multi_stim_exp1","2022-5-2","14:44:57","25","75","3","9","10","40","30","120","77","22","[""Asian""]","No","Female","2055345","679","i","learn","","","learn_trial","36.6667","40","out","0","1","","","","","","","","","","","","","","","","","","","","",""
"","","","","","canvas-keyboard-response","195","221272","0.0-12.0-3.36","2d_cat_multi_stim_exp1","2022-5-2","14:44:57","25","75","3","9","10","40","30","120","77","22","[""Asian""]","No","Female","2055345","null","null","learn_feedback","","","learn_feedback","36.6667","40","out","","","","","","","","","","","","","","","","","","","","","","",""
"","","","","","canvas-keyboard-response","196","221334","0.0-12.0-4.36","2d_cat_multi_stim_exp1","2022-5-2","14:44:57","25","75","3","9","10","40","30","120","77","22","[""Asian""]","No","Female","2055345","null","null","","","","clear_screen","","","","","","","","","","","","","","","","","","","","","","","","","",""
"","","","","","canvas-keyboard-response","197","221844","0.0-12.0-0.37","2d_cat_multi_stim_exp1","2022-5-2","14:44:57","25","75","3","9","10","40","30","120","77","22","[""Asian""]","No","Female","2055345","null","null","","","","fixation","","","","","","","","","","","","","","","","","","","","","","","","","",""
"","","","","","canvas-keyboard-response","198","222355","0.0-12.0-1.37","2d_cat_multi_stim_exp1","2022-5-2","14:44:57","25","75","3","9","10","40","30","120","77","22","[""Asian""]","No","Female","2055345","null","null","","","","clear_screen","","","","","","","","","","","","","","","","","","","","","","","","","",""
"","","","","","canvas-keyboard-response","199","223097","0.0-12.0-2.37","2d_cat_multi_stim_exp1","2022-5-2","14:44:57","25","75","3","9","10","40","30","120","77","22","[""Asian""]","No","Female","2055345","732","u","learn","","","learn_trial","10","110","out","1","0","","","","","","","","","","","","","","","","","","","","",""
"","","","","","canvas-keyboard-response","200","224106","0.0-12.0-3.37","2d_cat_multi_stim_exp1","2022-5-2","14:44:57","25","75","3","9","10","40","30","120","77","22","[""Asian""]","No","Female","2055345","null","null","learn_feedback","","","learn_feedback","10","110","out","","","","","","","","","","","","","","","","","","","","","","",""
"","","","","","canvas-keyboard-response","201","224169","0.0-12.0-4.37","2d_cat_multi_stim_exp1","2022-5-2","14:44:57","25","75","3","9","10","40","30","120","77","22","[""Asian""]","No","Female","2055345","null","null","","","","clear_screen","","","","","","","","","","","","","","","","","","","","","","","","","",""
"","","","","","canvas-keyboard-response","202","224679","0.0-12.0-0.38","2d_cat_multi_stim_exp1","2022-5-2","14:44:57","25","75","3","9","10","40","30","120","77","22","[""Asian""]","No","Female","2055345","null","null","","","","fixation","","","","","","","","","","","","","","","","","","","","","","","","","",""
"","","","","","canvas-keyboard-response","203","225192","0.0-12.0-1.38","2d_cat_multi_stim_exp1","2022-5-2","14:44:57","25","75","3","9","10","40","30","120","77","22","[""Asian""]","No","Female","2055345","null","null","","","","clear_screen","","","","","","","","","","","","","","","","","","","","","","","","","",""
"","","","","","canvas-keyboard-response","204","226017","0.0-12.0-2.38","2d_cat_multi_stim_exp1","2022-5-2","14:44:57","25","75","3","9","10","40","30","120","77","22","[""Asian""]","No","Female","2055345","817","u","learn","","","learn_trial","25","75","in","1","1","","","","","","","","","","","","","","","","","","","","",""
"","","","","","canvas-keyboard-response","205","226526","0.0-12.0-3.38","2d_cat_multi_stim_exp1","2022-5-2","14:44:57","25","75","3","9","10","40","30","120","77","22","[""Asian""]","No","Female","2055345","null","null","learn_feedback","","","learn_feedback","25","75","in","","","","","","","","","","","","","","","","","","","","","","",""
"","","","","","canvas-keyboard-response","206","226589","0.0-12.0-4.38","2d_cat_multi_stim_exp1","2022-5-2","14:44:57","25","75","3","9","10","40","30","120","77","22","[""Asian""]","No","Female","2055345","null","null","","","","clear_screen","","","","","","","","","","","","","","","","","","","","","","","","","",""
"","","","","","canvas-keyboard-response","207","227098","0.0-12.0-0.39","2d_cat_multi_stim_exp1","2022-5-2","14:44:57","25","75","3","9","10","40","30","120","77","22","[""Asian""]","No","Female","2055345","null","null","","","","fixation","","","","","","","","","","","","","","","","","","","","","","","","","",""
"","","","","","canvas-keyboard-response","208","227610","0.0-12.0-1.39","2d_cat_multi_stim_exp1","2022-5-2","14:44:57","25","75","3","9","10","40","30","120","77","22","[""Asian""]","No","Female","2055345","null","null","","","","clear_screen","","","","","","","","","","","","","","","","","","","","","","","","","",""
"","","","","","canvas-keyboard-response","209","228281","0.0-12.0-2.39","2d_cat_multi_stim_exp1","2022-5-2","14:44:57","25","75","3","9","10","40","30","120","77","22","[""Asian""]","No","Female","2055345","662","u","learn","","","learn_trial","10","90","out","1","0","","","","","","","","","","","","","","","","","","","","",""
"","","","","","canvas-keyboard-response","210","229292","0.0-12.0-3.39","2d_cat_multi_stim_exp1","2022-5-2","14:44:57","25","75","3","9","10","40","30","120","77","22","[""Asian""]","No","Female","2055345","null","null","learn_feedback","","","learn_feedback","10","90","out","","","","","","","","","","","","","","","","","","","","","","",""
"","","","","","canvas-keyboard-response","211","229352","0.0-12.0-4.39","2d_cat_multi_stim_exp1","2022-5-2","14:44:57","25","75","3","9","10","40","30","120","77","22","[""Asian""]","No","Female","2055345","null","null","","","","clear_screen","","","","","","","","","","","","","","","","","","","","","","","","","",""
"","","","","","canvas-keyboard-response","212","229863","0.0-12.0-0.40","2d_cat_multi_stim_exp1","2022-5-2","14:44:57","25","75","3","9","10","40","30","120","77","22","[""Asian""]","No","Female","2055345","null","null","","","","fixation","","","","","","","","","","","","","","","","","","","","","","","","","",""
"","","","","","canvas-keyboard-response","213","230376","0.0-12.0-1.40","2d_cat_multi_stim_exp1","2022-5-2","14:44:57","25","75","3","9","10","40","30","120","77","22","[""Asian""]","No","Female","2055345","null","null","","","","clear_screen","","","","","","","","","","","","","","","","","","","","","","","","","",""
"","","","","","canvas-keyboard-response","214","230840","0.0-12.0-2.40","2d_cat_multi_stim_exp1","2022-5-2","14:44:57","25","75","3","9","10","40","30","120","77","22","[""Asian""]","No","Female","2055345","455","i","learn","","","learn_trial","26.6667","50","out","0","1","","","","","","","","","","","","","","","","","","","","",""
"","","","","","canvas-keyboard-response","215","231349","0.0-12.0-3.40","2d_cat_multi_stim_exp1","2022-5-2","14:44:57","25","75","3","9","10","40","30","120","77","22","[""Asian""]","No","Female","2055345","null","null","learn_feedback","","","learn_feedback","26.6667","50","out","","","","","","","","","","","","","","","","","","","","","","",""
"","","","","","canvas-keyboard-response","216","231411","0.0-12.0-4.40","2d_cat_multi_stim_exp1","2022-5-2","14:44:57","25","75","3","9","10","40","30","120","77","22","[""Asian""]","No","Female","2055345","null","null","","","","clear_screen","","","","","","","","","","","","","","","","","","","","","","","","","",""
"","","","","","canvas-keyboard-response","217","231919","0.0-12.0-0.41","2d_cat_multi_stim_exp1","2022-5-2","14:44:57","25","75","3","9","10","40","30","120","77","22","[""Asian""]","No","Female","2055345","null","null","","","","fixation","","","","","","","","","","","","","","","","","","","","","","","","","",""
"","","","","","canvas-keyboard-response","218","232429","0.0-12.0-1.41","2d_cat_multi_stim_exp1","2022-5-2","14:44:57","25","75","3","9","10","40","30","120","77","22","[""Asian""]","No","Female","2055345","null","null","","","","clear_screen","","","","","","","","","","","","","","","","","","","","","","","","","",""
"","","","","","canvas-keyboard-response","219","232864","0.0-12.0-2.41","2d_cat_multi_stim_exp1","2022-5-2","14:44:57","25","75","3","9","10","40","30","120","77","22","[""Asian""]","No","Female","2055345","426","i","learn","","","learn_trial","16.6667","60","out","0","1","","","","","","","","","","","","","","","","","","","","",""
"","","","","","canvas-keyboard-response","220","233374","0.0-12.0-3.41","2d_cat_multi_stim_exp1","2022-5-2","14:44:57","25","75","3","9","10","40","30","120","77","22","[""Asian""]","No","Female","2055345","null","null","learn_feedback","","","learn_feedback","16.6667","60","out","","","","","","","","","","","","","","","","","","","","","","",""
"","","","","","canvas-keyboard-response","221","233437","0.0-12.0-4.41","2d_cat_multi_stim_exp1","2022-5-2","14:44:57","25","75","3","9","10","40","30","120","77","22","[""Asian""]","No","Female","2055345","null","null","","","","clear_screen","","","","","","","","","","","","","","","","","","","","","","","","","",""
"","","","","","canvas-keyboard-response","222","233949","0.0-12.0-0.42","2d_cat_multi_stim_exp1","2022-5-2","14:44:57","25","75","3","9","10","40","30","120","77","22","[""Asian""]","No","Female","2055345","null","null","","","","fixation","","","","","","","","","","","","","","","","","","","","","","","","","",""
"","","","","","canvas-keyboard-response","223","234459","0.0-12.0-1.42","2d_cat_multi_stim_exp1","2022-5-2","14:44:57","25","75","3","9","10","40","30","120","77","22","[""Asian""]","No","Female","2055345","null","null","","","","clear_screen","","","","","","","","","","","","","","","","","","","","","","","","","",""
"","","","","","canvas-keyboard-response","224","235121","0.0-12.0-2.42","2d_cat_multi_stim_exp1","2022-5-2","14:44:57","25","75","3","9","10","40","30","120","77","22","[""Asian""]","No","Female","2055345","652","i","learn","","","learn_trial","13.3333","40","out","0","1","","","","","","","","","","","","","","","","","","","","",""
"","","","","","canvas-keyboard-response","225","235633","0.0-12.0-3.42","2d_cat_multi_stim_exp1","2022-5-2","14:44:57","25","75","3","9","10","40","30","120","77","22","[""Asian""]","No","Female","2055345","null","null","learn_feedback","","","learn_feedback","13.3333","40","out","","","","","","","","","","","","","","","","","","","","","","",""
"","","","","","canvas-keyboard-response","226","235695","0.0-12.0-4.42","2d_cat_multi_stim_exp1","2022-5-2","14:44:57","25","75","3","9","10","40","30","120","77","22","[""Asian""]","No","Female","2055345","null","null","","","","clear_screen","","","","","","","","","","","","","","","","","","","","","","","","","",""
"","","","","","canvas-keyboard-response","227","236203","0.0-12.0-0.43","2d_cat_multi_stim_exp1","2022-5-2","14:44:57","25","75","3","9","10","40","30","120","77","22","[""Asian""]","No","Female","2055345","null","null","","","","fixation","","","","","","","","","","","","","","","","","","","","","","","","","",""
"","","","","","canvas-keyboard-response","228","236717","0.0-12.0-1.43","2d_cat_multi_stim_exp1","2022-5-2","14:44:57","25","75","3","9","10","40","30","120","77","22","[""Asian""]","No","Female","2055345","null","null","","","","clear_screen","","","","","","","","","","","","","","","","","","","","","","","","","",""
"","","","","","canvas-keyboard-response","229","237337","0.0-12.0-2.43","2d_cat_multi_stim_exp1","2022-5-2","14:44:57","25","75","3","9","10","40","30","120","77","22","[""Asian""]","No","Female","2055345","613","i","learn","","","learn_trial","25","75","in","0","0","","","","","","","","","","","","","","","","","","","","",""
"","","","","","canvas-keyboard-response","230","238349","0.0-12.0-3.43","2d_cat_multi_stim_exp1","2022-5-2","14:44:57","25","75","3","9","10","40","30","120","77","22","[""Asian""]","No","Female","2055345","null","null","learn_feedback","","","learn_feedback","25","75","in","","","","","","","","","","","","","","","","","","","","","","",""
"","","","","","canvas-keyboard-response","231","238408","0.0-12.0-4.43","2d_cat_multi_stim_exp1","2022-5-2","14:44:57","25","75","3","9","10","40","30","120","77","22","[""Asian""]","No","Female","2055345","null","null","","","","clear_screen","","","","","","","","","","","","","","","","","","","","","","","","","",""
"","","","","","canvas-keyboard-response","232","238916","0.0-12.0-0.44","2d_cat_multi_stim_exp1","2022-5-2","14:44:57","25","75","3","9","10","40","30","120","77","22","[""Asian""]","No","Female","2055345","null","null","","","","fixation","","","","","","","","","","","","","","","","","","","","","","","","","",""
"","","","","","canvas-keyboard-response","233","239426","0.0-12.0-1.44","2d_cat_multi_stim_exp1","2022-5-2","14:44:57","25","75","3","9","10","40","30","120","77","22","[""Asian""]","No","Female","2055345","null","null","","","","clear_screen","","","","","","","","","","","","","","","","","","","","","","","","","",""
"","","","","","canvas-keyboard-response","234","239777","0.0-12.0-2.44","2d_cat_multi_stim_exp1","2022-5-2","14:44:57","25","75","3","9","10","40","30","120","77","22","[""Asian""]","No","Female","2055345","340","u","learn","","","learn_trial","25","75","in","1","1","","","","","","","","","","","","","","","","","","","","",""
"","","","","","canvas-keyboard-response","235","240288","0.0-12.0-3.44","2d_cat_multi_stim_exp1","2022-5-2","14:44:57","25","75","3","9","10","40","30","120","77","22","[""Asian""]","No","Female","2055345","null","null","learn_feedback","","","learn_feedback","25","75","in","","","","","","","","","","","","","","","","","","","","","","",""
"","","","","","canvas-keyboard-response","236","240347","0.0-12.0-4.44","2d_cat_multi_stim_exp1","2022-5-2","14:44:57","25","75","3","9","10","40","30","120","77","22","[""Asian""]","No","Female","2055345","null","null","","","","clear_screen","","","","","","","","","","","","","","","","","","","","","","","","","",""
"","","","","","canvas-keyboard-response","237","240857","0.0-12.0-0.45","2d_cat_multi_stim_exp1","2022-5-2","14:44:57","25","75","3","9","10","40","30","120","77","22","[""Asian""]","No","Female","2055345","null","null","","","","fixation","","","","","","","","","","","","","","","","","","","","","","","","","",""
"","","","","","canvas-keyboard-response","238","241370","0.0-12.0-1.45","2d_cat_multi_stim_exp1","2022-5-2","14:44:57","25","75","3","9","10","40","30","120","77","22","[""Asian""]","No","Female","2055345","null","null","","","","clear_screen","","","","","","","","","","","","","","","","","","","","","","","","","",""
"","","","","","canvas-keyboard-response","239","241977","0.0-12.0-2.45","2d_cat_multi_stim_exp1","2022-5-2","14:44:57","25","75","3","9","10","40","30","120","77","22","[""Asian""]","No","Female","2055345","595","i","learn","","","learn_trial","25","75","in","0","0","","","","","","","","","","","","","","","","","","","","",""
"","","","","","canvas-keyboard-response","240","242985","0.0-12.0-3.45","2d_cat_multi_stim_exp1","2022-5-2","14:44:57","25","75","3","9","10","40","30","120","77","22","[""Asian""]","No","Female","2055345","null","null","learn_feedback","","","learn_feedback","25","75","in","","","","","","","","","","","","","","","","","","","","","","",""
"","","","","","canvas-keyboard-response","241","243046","0.0-12.0-4.45","2d_cat_multi_stim_exp1","2022-5-2","14:44:57","25","75","3","9","10","40","30","120","77","22","[""Asian""]","No","Female","2055345","null","null","","","","clear_screen","","","","","","","","","","","","","","","","","","","","","","","","","",""
"","","","","","canvas-keyboard-response","242","243555","0.0-12.0-0.46","2d_cat_multi_stim_exp1","2022-5-2","14:44:57","25","75","3","9","10","40","30","120","77","22","[""Asian""]","No","Female","2055345","null","null","","","","fixation","","","","","","","","","","","","","","","","","","","","","","","","","",""
"","","","","","canvas-keyboard-response","243","244065","0.0-12.0-1.46","2d_cat_multi_stim_exp1","2022-5-2","14:44:57","25","75","3","9","10","40","30","120","77","22","[""Asian""]","No","Female","2055345","null","null","","","","clear_screen","","","","","","","","","","","","","","","","","","","","","","","","","",""
"","","","","","canvas-keyboard-response","244","244281","0.0-12.0-2.46","2d_cat_multi_stim_exp1","2022-5-2","14:44:57","25","75","3","9","10","40","30","120","77","22","[""Asian""]","No","Female","2055345","207","u","learn","","","learn_trial","25","75","in","1","1","","","","","","","","","","","","","","","","","","","","",""
"","","","","","canvas-keyboard-response","245","244790","0.0-12.0-3.46","2d_cat_multi_stim_exp1","2022-5-2","14:44:57","25","75","3","9","10","40","30","120","77","22","[""Asian""]","No","Female","2055345","null","null","learn_feedback","","","learn_feedback","25","75","in","","","","","","","","","","","","","","","","","","","","","","",""
"","","","","","canvas-keyboard-response","246","244851","0.0-12.0-4.46","2d_cat_multi_stim_exp1","2022-5-2","14:44:57","25","75","3","9","10","40","30","120","77","22","[""Asian""]","No","Female","2055345","null","null","","","","clear_screen","","","","","","","","","","","","","","","","","","","","","","","","","",""
"","","","","","canvas-keyboard-response","247","245359","0.0-12.0-0.47","2d_cat_multi_stim_exp1","2022-5-2","14:44:57","25","75","3","9","10","40","30","120","77","22","[""Asian""]","No","Female","2055345","null","null","","","","fixation","","","","","","","","","","","","","","","","","","","","","","","","","",""
"","","","","","canvas-keyboard-response","248","245872","0.0-12.0-1.47","2d_cat_multi_stim_exp1","2022-5-2","14:44:57","25","75","3","9","10","40","30","120","77","22","[""Asian""]","No","Female","2055345","null","null","","","","clear_screen","","","","","","","","","","","","","","","","","","","","","","","","","",""
"","","","","","canvas-keyboard-response","249","246440","0.0-12.0-2.47","2d_cat_multi_stim_exp1","2022-5-2","14:44:57","25","75","3","9","10","40","30","120","77","22","[""Asian""]","No","Female","2055345","560","i","learn","","","learn_trial","36.6667","80","out","0","1","","","","","","","","","","","","","","","","","","","","",""
"","","","","","canvas-keyboard-response","250","246952","0.0-12.0-3.47","2d_cat_multi_stim_exp1","2022-5-2","14:44:57","25","75","3","9","10","40","30","120","77","22","[""Asian""]","No","Female","2055345","null","null","learn_feedback","","","learn_feedback","36.6667","80","out","","","","","","","","","","","","","","","","","","","","","","",""
"","","","","","canvas-keyboard-response","251","247014","0.0-12.0-4.47","2d_cat_multi_stim_exp1","2022-5-2","14:44:57","25","75","3","9","10","40","30","120","77","22","[""Asian""]","No","Female","2055345","null","null","","","","clear_screen","","","","","","","","","","","","","","","","","","","","","","","","","",""
"","","","","","canvas-keyboard-response","252","247522","0.0-12.0-0.48","2d_cat_multi_stim_exp1","2022-5-2","14:44:57","25","75","3","9","10","40","30","120","77","22","[""Asian""]","No","Female","2055345","null","null","","","","fixation","","","","","","","","","","","","","","","","","","","","","","","","","",""
"","","","","","canvas-keyboard-response","253","248034","0.0-12.0-1.48","2d_cat_multi_stim_exp1","2022-5-2","14:44:57","25","75","3","9","10","40","30","120","77","22","[""Asian""]","No","Female","2055345","null","null","","","","clear_screen","","","","","","","","","","","","","","","","","","","","","","","","","",""
"","","","","","canvas-keyboard-response","254","248871","0.0-12.0-2.48","2d_cat_multi_stim_exp1","2022-5-2","14:44:57","25","75","3","9","10","40","30","120","77","22","[""Asian""]","No","Female","2055345","827","i","learn","","","learn_trial","40","60","out","0","1","","","","","","","","","","","","","","","","","","","","",""
"","","","","","canvas-keyboard-response","255","249380","0.0-12.0-3.48","2d_cat_multi_stim_exp1","2022-5-2","14:44:57","25","75","3","9","10","40","30","120","77","22","[""Asian""]","No","Female","2055345","null","null","learn_feedback","","","learn_feedback","40","60","out","","","","","","","","","","","","","","","","","","","","","","",""
"","","","","","canvas-keyboard-response","256","249442","0.0-12.0-4.48","2d_cat_multi_stim_exp1","2022-5-2","14:44:57","25","75","3","9","10","40","30","120","77","22","[""Asian""]","No","Female","2055345","null","null","","","","clear_screen","","","","","","","","","","","","","","","","","","","","","","","","","",""
"","","","","","canvas-keyboard-response","257","249950","0.0-12.0-0.49","2d_cat_multi_stim_exp1","2022-5-2","14:44:57","25","75","3","9","10","40","30","120","77","22","[""Asian""]","No","Female","2055345","null","null","","","","fixation","","","","","","","","","","","","","","","","","","","","","","","","","",""
"","","","","","canvas-keyboard-response","258","250460","0.0-12.0-1.49","2d_cat_multi_stim_exp1","2022-5-2","14:44:57","25","75","3","9","10","40","30","120","77","22","[""Asian""]","No","Female","2055345","null","null","","","","clear_screen","","","","","","","","","","","","","","","","","","","","","","","","","",""
"","","","","","canvas-keyboard-response","259","251025","0.0-12.0-2.49","2d_cat_multi_stim_exp1","2022-5-2","14:44:57","25","75","3","9","10","40","30","120","77","22","[""Asian""]","No","Female","2055345","554","i","learn","","","learn_trial","20","40","out","0","1","","","","","","","","","","","","","","","","","","","","",""
"","","","","","canvas-keyboard-response","260","251534","0.0-12.0-3.49","2d_cat_multi_stim_exp1","2022-5-2","14:44:57","25","75","3","9","10","40","30","120","77","22","[""Asian""]","No","Female","2055345","null","null","learn_feedback","","","learn_feedback","20","40","out","","","","","","","","","","","","","","","","","","","","","","",""
"","","","","","canvas-keyboard-response","261","251595","0.0-12.0-4.49","2d_cat_multi_stim_exp1","2022-5-2","14:44:57","25","75","3","9","10","40","30","120","77","22","[""Asian""]","No","Female","2055345","null","null","","","","clear_screen","","","","","","","","","","","","","","","","","","","","","","","","","",""
"","","","","","canvas-keyboard-response","262","252103","0.0-12.0-0.50","2d_cat_multi_stim_exp1","2022-5-2","14:44:57","25","75","3","9","10","40","30","120","77","22","[""Asian""]","No","Female","2055345","null","null","","","","fixation","","","","","","","","","","","","","","","","","","","","","","","","","",""
"","","","","","canvas-keyboard-response","263","252616","0.0-12.0-1.50","2d_cat_multi_stim_exp1","2022-5-2","14:44:57","25","75","3","9","10","40","30","120","77","22","[""Asian""]","No","Female","2055345","null","null","","","","clear_screen","","","","","","","","","","","","","","","","","","","","","","","","","",""
"","","","","","canvas-keyboard-response","264","253240","0.0-12.0-2.50","2d_cat_multi_stim_exp1","2022-5-2","14:44:57","25","75","3","9","10","40","30","120","77","22","[""Asian""]","No","Female","2055345","614","i","learn","","","learn_trial","25","75","in","0","0","","","","","","","","","","","","","","","","","","","","",""
"","","","","","canvas-keyboard-response","265","254250","0.0-12.0-3.50","2d_cat_multi_stim_exp1","2022-5-2","14:44:57","25","75","3","9","10","40","30","120","77","22","[""Asian""]","No","Female","2055345","null","null","learn_feedback","","","learn_feedback","25","75","in","","","","","","","","","","","","","","","","","","","","","","",""
"","","","","","canvas-keyboard-response","266","254308","0.0-12.0-4.50","2d_cat_multi_stim_exp1","2022-5-2","14:44:57","25","75","3","9","10","40","30","120","77","22","[""Asian""]","No","Female","2055345","null","null","","","","clear_screen","","","","","","","","","","","","","","","","","","","","","","","","","",""
"","","","","","canvas-keyboard-response","267","254816","0.0-12.0-0.51","2d_cat_multi_stim_exp1","2022-5-2","14:44:57","25","75","3","9","10","40","30","120","77","22","[""Asian""]","No","Female","2055345","null","null","","","","fixation","","","","","","","","","","","","","","","","","","","","","","","","","",""
"","","","","","canvas-keyboard-response","268","255327","0.0-12.0-1.51","2d_cat_multi_stim_exp1","2022-5-2","14:44:57","25","75","3","9","10","40","30","120","77","22","[""Asian""]","No","Female","2055345","null","null","","","","clear_screen","","","","","","","","","","","","","","","","","","","","","","","","","",""
"","","","","","canvas-keyboard-response","269","255617","0.0-12.0-2.51","2d_cat_multi_stim_exp1","2022-5-2","14:44:57","25","75","3","9","10","40","30","120","77","22","[""Asian""]","No","Female","2055345","280","u","learn","","","learn_trial","25","75","in","1","1","","","","","","","","","","","","","","","","","","","","",""
"","","","","","canvas-keyboard-response","270","256125","0.0-12.0-3.51","2d_cat_multi_stim_exp1","2022-5-2","14:44:57","25","75","3","9","10","40","30","120","77","22","[""Asian""]","No","Female","2055345","null","null","learn_feedback","","","learn_feedback","25","75","in","","","","","","","","","","","","","","","","","","","","","","",""
"","","","","","canvas-keyboard-response","271","256188","0.0-12.0-4.51","2d_cat_multi_stim_exp1","2022-5-2","14:44:57","25","75","3","9","10","40","30","120","77","22","[""Asian""]","No","Female","2055345","null","null","","","","clear_screen","","","","","","","","","","","","","","","","","","","","","","","","","",""
"","","","","","canvas-keyboard-response","272","256696","0.0-12.0-0.52","2d_cat_multi_stim_exp1","2022-5-2","14:44:57","25","75","3","9","10","40","30","120","77","22","[""Asian""]","No","Female","2055345","null","null","","","","fixation","","","","","","","","","","","","","","","","","","","","","","","","","",""
"","","","","","canvas-keyboard-response","273","257203","0.0-12.0-1.52","2d_cat_multi_stim_exp1","2022-5-2","14:44:57","25","75","3","9","10","40","30","120","77","22","[""Asian""]","No","Female","2055345","null","null","","","","clear_screen","","","","","","","","","","","","","","","","","","","","","","","","","",""
"","","","","","canvas-keyboard-response","274","257721","0.0-12.0-2.52","2d_cat_multi_stim_exp1","2022-5-2","14:44:57","25","75","3","9","10","40","30","120","77","22","[""Asian""]","No","Female","2055345","509","i","learn","","","learn_trial","20","90","out","0","1","","","","","","","","","","","","","","","","","","","","",""
"","","","","","canvas-keyboard-response","275","258233","0.0-12.0-3.52","2d_cat_multi_stim_exp1","2022-5-2","14:44:57","25","75","3","9","10","40","30","120","77","22","[""Asian""]","No","Female","2055345","null","null","learn_feedback","","","learn_feedback","20","90","out","","","","","","","","","","","","","","","","","","","","","","",""
"","","","","","canvas-keyboard-response","276","258294","0.0-12.0-4.52","2d_cat_multi_stim_exp1","2022-5-2","14:44:57","25","75","3","9","10","40","30","120","77","22","[""Asian""]","No","Female","2055345","null","null","","","","clear_screen","","","","","","","","","","","","","","","","","","","","","","","","","",""
"","","","","","canvas-keyboard-response","277","258804","0.0-12.0-0.53","2d_cat_multi_stim_exp1","2022-5-2","14:44:57","25","75","3","9","10","40","30","120","77","22","[""Asian""]","No","Female","2055345","null","null","","","","fixation","","","","","","","","","","","","","","","","","","","","","","","","","",""
"","","","","","canvas-keyboard-response","278","259315","0.0-12.0-1.53","2d_cat_multi_stim_exp1","2022-5-2","14:44:57","25","75","3","9","10","40","30","120","77","22","[""Asian""]","No","Female","2055345","null","null","","","","clear_screen","","","","","","","","","","","","","","","","","","","","","","","","","",""
"","","","","","canvas-keyboard-response","279","260594","0.0-12.0-2.53","2d_cat_multi_stim_exp1","2022-5-2","14:44:57","25","75","3","9","10","40","30","120","77","22","[""Asian""]","No","Female","2055345","1268","i","learn","","","learn_trial","20","120","out","0","1","","","","","","","","","","","","","","","","","","","","",""
"","","","","","canvas-keyboard-response","280","261104","0.0-12.0-3.53","2d_cat_multi_stim_exp1","2022-5-2","14:44:57","25","75","3","9","10","40","30","120","77","22","[""Asian""]","No","Female","2055345","null","null","learn_feedback","","","learn_feedback","20","120","out","","","","","","","","","","","","","","","","","","","","","","",""
"","","","","","canvas-keyboard-response","281","261164","0.0-12.0-4.53","2d_cat_multi_stim_exp1","2022-5-2","14:44:57","25","75","3","9","10","40","30","120","77","22","[""Asian""]","No","Female","2055345","null","null","","","","clear_screen","","","","","","","","","","","","","","","","","","","","","","","","","",""
"","","","","","canvas-keyboard-response","282","261677","0.0-12.0-0.54","2d_cat_multi_stim_exp1","2022-5-2","14:44:57","25","75","3","9","10","40","30","120","77","22","[""Asian""]","No","Female","2055345","null","null","","","","fixation","","","","","","","","","","","","","","","","","","","","","","","","","",""
"","","","","","canvas-keyboard-response","283","262190","0.0-12.0-1.54","2d_cat_multi_stim_exp1","2022-5-2","14:44:57","25","75","3","9","10","40","30","120","77","22","[""Asian""]","No","Female","2055345","null","null","","","","clear_screen","","","","","","","","","","","","","","","","","","","","","","","","","",""
"","","","","","canvas-keyboard-response","284","262681","0.0-12.0-2.54","2d_cat_multi_stim_exp1","2022-5-2","14:44:57","25","75","3","9","10","40","30","120","77","22","[""Asian""]","No","Female","2055345","480","i","learn","","","learn_trial","36.6667","120","out","0","1","","","","","","","","","","","","","","","","","","","","",""
"","","","","","canvas-keyboard-response","285","263193","0.0-12.0-3.54","2d_cat_multi_stim_exp1","2022-5-2","14:44:57","25","75","3","9","10","40","30","120","77","22","[""Asian""]","No","Female","2055345","null","null","learn_feedback","","","learn_feedback","36.6667","120","out","","","","","","","","","","","","","","","","","","","","","","",""
"","","","","","canvas-keyboard-response","286","263253","0.0-12.0-4.54","2d_cat_multi_stim_exp1","2022-5-2","14:44:57","25","75","3","9","10","40","30","120","77","22","[""Asian""]","No","Female","2055345","null","null","","","","clear_screen","","","","","","","","","","","","","","","","","","","","","","","","","",""
"","","","","","canvas-keyboard-response","287","263761","0.0-12.0-0.55","2d_cat_multi_stim_exp1","2022-5-2","14:44:57","25","75","3","9","10","40","30","120","77","22","[""Asian""]","No","Female","2055345","null","null","","","","fixation","","","","","","","","","","","","","","","","","","","","","","","","","",""
"","","","","","canvas-keyboard-response","288","264271","0.0-12.0-1.55","2d_cat_multi_stim_exp1","2022-5-2","14:44:57","25","75","3","9","10","40","30","120","77","22","[""Asian""]","No","Female","2055345","null","null","","","","clear_screen","","","","","","","","","","","","","","","","","","","","","","","","","",""
"","","","","","canvas-keyboard-response","289","264778","0.0-12.0-2.55","2d_cat_multi_stim_exp1","2022-5-2","14:44:57","25","75","3","9","10","40","30","120","77","22","[""Asian""]","No","Female","2055345","497","i","learn","","","learn_trial","25","75","in","0","0","","","","","","","","","","","","","","","","","","","","",""
"","","","","","canvas-keyboard-response","290","265788","0.0-12.0-3.55","2d_cat_multi_stim_exp1","2022-5-2","14:44:57","25","75","3","9","10","40","30","120","77","22","[""Asian""]","No","Female","2055345","null","null","learn_feedback","","","learn_feedback","25","75","in","","","","","","","","","","","","","","","","","","","","","","",""
"","","","","","canvas-keyboard-response","291","265844","0.0-12.0-4.55","2d_cat_multi_stim_exp1","2022-5-2","14:44:57","25","75","3","9","10","40","30","120","77","22","[""Asian""]","No","Female","2055345","null","null","","","","clear_screen","","","","","","","","","","","","","","","","","","","","","","","","","",""
"","","","","","canvas-keyboard-response","292","266355","0.0-12.0-0.56","2d_cat_multi_stim_exp1","2022-5-2","14:44:57","25","75","3","9","10","40","30","120","77","22","[""Asian""]","No","Female","2055345","null","null","","","","fixation","","","","","","","","","","","","","","","","","","","","","","","","","",""
"","","","","","canvas-keyboard-response","293","266863","0.0-12.0-1.56","2d_cat_multi_stim_exp1","2022-5-2","14:44:57","25","75","3","9","10","40","30","120","77","22","[""Asian""]","No","Female","2055345","null","null","","","","clear_screen","","","","","","","","","","","","","","","","","","","","","","","","","",""
"","","","","","canvas-keyboard-response","294","266968","0.0-12.0-2.56","2d_cat_multi_stim_exp1","2022-5-2","14:44:57","25","75","3","9","10","40","30","120","77","22","[""Asian""]","No","Female","2055345","96","u","learn","","","learn_trial","40","70","out","1","0","","","","","","","","","","","","","","","","","","","","",""
"","","","","","canvas-keyboard-response","295","267980","0.0-12.0-3.56","2d_cat_multi_stim_exp1","2022-5-2","14:44:57","25","75","3","9","10","40","30","120","77","22","[""Asian""]","No","Female","2055345","null","null","learn_feedback","","","learn_feedback","40","70","out","","","","","","","","","","","","","","","","","","","","","","",""
"","","","","","canvas-keyboard-response","296","268039","0.0-12.0-4.56","2d_cat_multi_stim_exp1","2022-5-2","14:44:57","25","75","3","9","10","40","30","120","77","22","[""Asian""]","No","Female","2055345","null","null","","","","clear_screen","","","","","","","","","","","","","","","","","","","","","","","","","",""
"","","","","","canvas-keyboard-response","297","268548","0.0-12.0-0.57","2d_cat_multi_stim_exp1","2022-5-2","14:44:57","25","75","3","9","10","40","30","120","77","22","[""Asian""]","No","Female","2055345","null","null","","","","fixation","","","","","","","","","","","","","","","","","","","","","","","","","",""
