"success","timeout","failed_images","failed_audio","failed_video","trial_type","trial_index","time_elapsed","internal_node_id","exp_name","date","time","angle_mean_in","radius_mean_in","angle_sd_in","radius_sd_in","angle_min_out","angle_max_out","radius_min_out","radius_max_out","sub_n","age","race","ethnicity","gender","exp_duration","rt","response","exp_trial_type","stimulus","view_history","screen_id","angle","radius","distribution","choice","correct","order","angle_a","radius_a","angle_b","radius_b","angle_c","radius_c","jkl_correct","transfer_trial_type","choice_set","abc_correct","tc_correct","tc_angle","tdc_a","tdc_b","tdc_c","pair","category_a","category_b","category_c","question_order"
"true","false","[]","[]","[]","preload","0","18","0.0-0.0","2d_cat_multi_stim_exp1","2022-4-8","15:29:18","25","75","3","9","10","40","30","120","23","18","[""White""]","No","Female","1951233","","","","","","","","","","","","","","","","","","","","","","","","","","","","","","","",""
"","","","","","survey-html-form","1","1967","0.0-1.0","2d_cat_multi_stim_exp1","2022-4-8","15:29:18","25","75","3","9","10","40","30","120","23","18","[""White""]","No","Female","1951233","1936","{""response"":""23""}","enter-sub-number","","","","","","","","","","","","","","","","","","","","","","","","","","","","",""
"true","","","","","fullscreen","2","6448","0.0-2.0","2d_cat_multi_stim_exp1","2022-4-8","15:29:18","25","75","3","9","10","40","30","120","23","18","[""White""]","No","Female","1951233","","","","","","","","","","","","","","","","","","","","","","","","","","","","","","","",""
"","","","","","image-button-response","3","43178","0.0-3.0","2d_cat_multi_stim_exp1","2022-4-8","15:29:18","25","75","3","9","10","40","30","120","23","18","[""White""]","No","Female","1951233","36723","0","","consent.png","","","","","","","","","","","","","","","","","","","","","","","","","","","",""
"","","","","","html-button-response","4","47696","0.0-4.0","2d_cat_multi_stim_exp1","2022-4-8","15:29:18","25","75","3","9","10","40","30","120","23","18","[""White""]","No","Female","1951233","4513","0","","<div style= ""font-size:25px;"" <p> <strong> Welcome to the experiment! </strong><br> <p style=""color:#8B0000; font-size:25px;""><strong> Please do NOT exit full screen until you are done with the experiment. </strong> </p><p style=""font-size:25px;color:#8B0000;""> <strong> The experiment will be canceled and your data will be lost <br> if you try to go back or refresh the page at any point during the experiment.</strong> </p><br><p> <strong> Thanks in advance for your contribution to our research! </strong></p>","","","","","","","","","","","","","","","","","","","","","","","","","","","",""
"","","","","","instructions","5","88065","0.0-5.0","2d_cat_multi_stim_exp1","2022-4-8","15:29:18","25","75","3","9","10","40","30","120","23","18","[""White""]","No","Female","1951233","40362","","","","[{""page_index"":0,""viewing_time"":4242},{""page_index"":1,""viewing_time"":2224},{""page_index"":2,""viewing_time"":8712},{""page_index"":3,""viewing_time"":25184}]","instructions_1","","","","","","","","","","","","","","","","","","","","","","","","","",""
"","","","","","instructions","6","90657","0.0-6.0","2d_cat_multi_stim_exp1","2022-4-8","15:29:18","25","75","3","9","10","40","30","120","23","18","[""White""]","No","Female","1951233","2586","","","","[{""page_index"":0,""viewing_time"":2585}]","Click to see the kinds of turtles that will appear in the study.","","","","","","","","","","","","","","","","","","","","","","","","","",""
"","","","","","canvas-keyboard-response","7","105676","0.0-7.0","2d_cat_multi_stim_exp1","2022-4-8","15:29:18","25","75","3","9","10","40","30","120","23","18","[""White""]","No","Female","1951233","null","null","","","","demo_range","","","","","","","","","","","","","","","","","","","","","","","","","",""
"","","","","","instructions","8","109983","0.0-8.0","2d_cat_multi_stim_exp1","2022-4-8","15:29:18","25","75","3","9","10","40","30","120","23","18","[""White""]","No","Female","1951233","3805","","","","[{""page_index"":0,""viewing_time"":3805}]","Click to see some turtles in the subspecies.","","","","","","","","","","","","","","","","","","","","","","","","","",""
"","","","","","canvas-keyboard-response","9","124994","0.0-9.0","2d_cat_multi_stim_exp1","2022-4-8","15:29:18","25","75","3","9","10","40","30","120","23","18","[""White""]","No","Female","1951233","null","null","","","","demo_in","","","","","","","","","","","","","","","","","","","","","","","","","",""
"","","","","","instructions","10","158705","0.0-10.0","2d_cat_multi_stim_exp1","2022-4-8","15:29:18","25","75","3","9","10","40","30","120","23","18","[""White""]","No","Female","1951233","33208","","","","[{""page_index"":0,""viewing_time"":5320},{""page_index"":1,""viewing_time"":21417},{""page_index"":2,""viewing_time"":6471}]","instructions_2","","","","","","","","","","","","","","","","","","","","","","","","","",""
"","","","","","instructions","11","160382","0.0-11.0","2d_cat_multi_stim_exp1","2022-4-8","15:29:18","25","75","3","9","10","40","30","120","23","18","[""White""]","No","Female","1951233","1675","","","","[{""page_index"":0,""viewing_time"":1675}]","Click to begin the first phase of the experiment.","","","","","","","","","","","","","","","","","","","","","","","","","",""
"","","","","","canvas-keyboard-response","12","160892","0.0-12.0-0.0","2d_cat_multi_stim_exp1","2022-4-8","15:29:18","25","75","3","9","10","40","30","120","23","18","[""White""]","No","Female","1951233","null","null","","","","fixation","","","","","","","","","","","","","","","","","","","","","","","","","",""
"","","","","","canvas-keyboard-response","13","161406","0.0-12.0-1.0","2d_cat_multi_stim_exp1","2022-4-8","15:29:18","25","75","3","9","10","40","30","120","23","18","[""White""]","No","Female","1951233","null","null","","","","clear_screen","","","","","","","","","","","","","","","","","","","","","","","","","",""
"","","","","","canvas-keyboard-response","14","170512","0.0-12.0-2.0","2d_cat_multi_stim_exp1","2022-4-8","15:29:18","25","75","3","9","10","40","30","120","23","18","[""White""]","No","Female","1951233","9096","i","learn","","","learn_trial","13.3333","40","out","0","1","","","","","","","","","","","","","","","","","","","","",""
"","","","","","canvas-keyboard-response","15","171025","0.0-12.0-3.0","2d_cat_multi_stim_exp1","2022-4-8","15:29:18","25","75","3","9","10","40","30","120","23","18","[""White""]","No","Female","1951233","null","null","learn_feedback","","","learn_feedback","13.3333","40","out","","","","","","","","","","","","","","","","","","","","","","",""
"","","","","","canvas-keyboard-response","16","171088","0.0-12.0-4.0","2d_cat_multi_stim_exp1","2022-4-8","15:29:18","25","75","3","9","10","40","30","120","23","18","[""White""]","No","Female","1951233","null","null","","","","clear_screen","","","","","","","","","","","","","","","","","","","","","","","","","",""
"","","","","","canvas-keyboard-response","17","171598","0.0-12.0-0.1","2d_cat_multi_stim_exp1","2022-4-8","15:29:18","25","75","3","9","10","40","30","120","23","18","[""White""]","No","Female","1951233","null","null","","","","fixation","","","","","","","","","","","","","","","","","","","","","","","","","",""
"","","","","","canvas-keyboard-response","18","172108","0.0-12.0-1.1","2d_cat_multi_stim_exp1","2022-4-8","15:29:18","25","75","3","9","10","40","30","120","23","18","[""White""]","No","Female","1951233","null","null","","","","clear_screen","","","","","","","","","","","","","","","","","","","","","","","","","",""
"","","","","","canvas-keyboard-response","19","173696","0.0-12.0-2.1","2d_cat_multi_stim_exp1","2022-4-8","15:29:18","25","75","3","9","10","40","30","120","23","18","[""White""]","No","Female","1951233","1577","i","learn","","","learn_trial","10","120","out","0","1","","","","","","","","","","","","","","","","","","","","",""
"","","","","","canvas-keyboard-response","20","174209","0.0-12.0-3.1","2d_cat_multi_stim_exp1","2022-4-8","15:29:18","25","75","3","9","10","40","30","120","23","18","[""White""]","No","Female","1951233","null","null","learn_feedback","","","learn_feedback","10","120","out","","","","","","","","","","","","","","","","","","","","","","",""
"","","","","","canvas-keyboard-response","21","174268","0.0-12.0-4.1","2d_cat_multi_stim_exp1","2022-4-8","15:29:18","25","75","3","9","10","40","30","120","23","18","[""White""]","No","Female","1951233","null","null","","","","clear_screen","","","","","","","","","","","","","","","","","","","","","","","","","",""
"","","","","","canvas-keyboard-response","22","174779","0.0-12.0-0.2","2d_cat_multi_stim_exp1","2022-4-8","15:29:18","25","75","3","9","10","40","30","120","23","18","[""White""]","No","Female","1951233","null","null","","","","fixation","","","","","","","","","","","","","","","","","","","","","","","","","",""
"","","","","","canvas-keyboard-response","23","175291","0.0-12.0-1.2","2d_cat_multi_stim_exp1","2022-4-8","15:29:18","25","75","3","9","10","40","30","120","23","18","[""White""]","No","Female","1951233","null","null","","","","clear_screen","","","","","","","","","","","","","","","","","","","","","","","","","",""
"","","","","","canvas-keyboard-response","24","179424","0.0-12.0-2.2","2d_cat_multi_stim_exp1","2022-4-8","15:29:18","25","75","3","9","10","40","30","120","23","18","[""White""]","No","Female","1951233","4122","i","learn","","","learn_trial","33.3333","50","out","0","1","","","","","","","","","","","","","","","","","","","","",""
"","","","","","canvas-keyboard-response","25","179934","0.0-12.0-3.2","2d_cat_multi_stim_exp1","2022-4-8","15:29:18","25","75","3","9","10","40","30","120","23","18","[""White""]","No","Female","1951233","null","null","learn_feedback","","","learn_feedback","33.3333","50","out","","","","","","","","","","","","","","","","","","","","","","",""
"","","","","","canvas-keyboard-response","26","179996","0.0-12.0-4.2","2d_cat_multi_stim_exp1","2022-4-8","15:29:18","25","75","3","9","10","40","30","120","23","18","[""White""]","No","Female","1951233","null","null","","","","clear_screen","","","","","","","","","","","","","","","","","","","","","","","","","",""
"","","","","","canvas-keyboard-response","27","180507","0.0-12.0-0.3","2d_cat_multi_stim_exp1","2022-4-8","15:29:18","25","75","3","9","10","40","30","120","23","18","[""White""]","No","Female","1951233","null","null","","","","fixation","","","","","","","","","","","","","","","","","","","","","","","","","",""
"","","","","","canvas-keyboard-response","28","181019","0.0-12.0-1.3","2d_cat_multi_stim_exp1","2022-4-8","15:29:18","25","75","3","9","10","40","30","120","23","18","[""White""]","No","Female","1951233","null","null","","","","clear_screen","","","","","","","","","","","","","","","","","","","","","","","","","",""
"","","","","","canvas-keyboard-response","29","182232","0.0-12.0-2.3","2d_cat_multi_stim_exp1","2022-4-8","15:29:18","25","75","3","9","10","40","30","120","23","18","[""White""]","No","Female","1951233","1204","u","learn","","","learn_trial","25","75","in","1","1","","","","","","","","","","","","","","","","","","","","",""
"","","","","","canvas-keyboard-response","30","182743","0.0-12.0-3.3","2d_cat_multi_stim_exp1","2022-4-8","15:29:18","25","75","3","9","10","40","30","120","23","18","[""White""]","No","Female","1951233","null","null","learn_feedback","","","learn_feedback","25","75","in","","","","","","","","","","","","","","","","","","","","","","",""
"","","","","","canvas-keyboard-response","31","182807","0.0-12.0-4.3","2d_cat_multi_stim_exp1","2022-4-8","15:29:18","25","75","3","9","10","40","30","120","23","18","[""White""]","No","Female","1951233","null","null","","","","clear_screen","","","","","","","","","","","","","","","","","","","","","","","","","",""
"","","","","","canvas-keyboard-response","32","183315","0.0-12.0-0.4","2d_cat_multi_stim_exp1","2022-4-8","15:29:18","25","75","3","9","10","40","30","120","23","18","[""White""]","No","Female","1951233","null","null","","","","fixation","","","","","","","","","","","","","","","","","","","","","","","","","",""
"","","","","","canvas-keyboard-response","33","183827","0.0-12.0-1.4","2d_cat_multi_stim_exp1","2022-4-8","15:29:18","25","75","3","9","10","40","30","120","23","18","[""White""]","No","Female","1951233","null","null","","","","clear_screen","","","","","","","","","","","","","","","","","","","","","","","","","",""
"","","","","","canvas-keyboard-response","34","185457","0.0-12.0-2.4","2d_cat_multi_stim_exp1","2022-4-8","15:29:18","25","75","3","9","10","40","30","120","23","18","[""White""]","No","Female","1951233","1619","u","learn","","","learn_trial","26.4216","67.0746","in","1","1","","","","","","","","","","","","","","","","","","","","",""
"","","","","","canvas-keyboard-response","35","185970","0.0-12.0-3.4","2d_cat_multi_stim_exp1","2022-4-8","15:29:18","25","75","3","9","10","40","30","120","23","18","[""White""]","No","Female","1951233","null","null","learn_feedback","","","learn_feedback","26.4216","67.0746","in","","","","","","","","","","","","","","","","","","","","","","",""
"","","","","","canvas-keyboard-response","36","186028","0.0-12.0-4.4","2d_cat_multi_stim_exp1","2022-4-8","15:29:18","25","75","3","9","10","40","30","120","23","18","[""White""]","No","Female","1951233","null","null","","","","clear_screen","","","","","","","","","","","","","","","","","","","","","","","","","",""
"","","","","","canvas-keyboard-response","37","186538","0.0-12.0-0.5","2d_cat_multi_stim_exp1","2022-4-8","15:29:18","25","75","3","9","10","40","30","120","23","18","[""White""]","No","Female","1951233","null","null","","","","fixation","","","","","","","","","","","","","","","","","","","","","","","","","",""
"","","","","","canvas-keyboard-response","38","187046","0.0-12.0-1.5","2d_cat_multi_stim_exp1","2022-4-8","15:29:18","25","75","3","9","10","40","30","120","23","18","[""White""]","No","Female","1951233","null","null","","","","clear_screen","","","","","","","","","","","","","","","","","","","","","","","","","",""
"","","","","","canvas-keyboard-response","39","188568","0.0-12.0-2.5","2d_cat_multi_stim_exp1","2022-4-8","15:29:18","25","75","3","9","10","40","30","120","23","18","[""White""]","No","Female","1951233","1510","u","learn","","","learn_trial","26.6667","60","out","1","0","","","","","","","","","","","","","","","","","","","","",""
"","","","","","canvas-keyboard-response","40","189578","0.0-12.0-3.5","2d_cat_multi_stim_exp1","2022-4-8","15:29:18","25","75","3","9","10","40","30","120","23","18","[""White""]","No","Female","1951233","null","null","learn_feedback","","","learn_feedback","26.6667","60","out","","","","","","","","","","","","","","","","","","","","","","",""
"","","","","","canvas-keyboard-response","41","189640","0.0-12.0-4.5","2d_cat_multi_stim_exp1","2022-4-8","15:29:18","25","75","3","9","10","40","30","120","23","18","[""White""]","No","Female","1951233","null","null","","","","clear_screen","","","","","","","","","","","","","","","","","","","","","","","","","",""
"","","","","","canvas-keyboard-response","42","190150","0.0-12.0-0.6","2d_cat_multi_stim_exp1","2022-4-8","15:29:18","25","75","3","9","10","40","30","120","23","18","[""White""]","No","Female","1951233","null","null","","","","fixation","","","","","","","","","","","","","","","","","","","","","","","","","",""
"","","","","","canvas-keyboard-response","43","190663","0.0-12.0-1.6","2d_cat_multi_stim_exp1","2022-4-8","15:29:18","25","75","3","9","10","40","30","120","23","18","[""White""]","No","Female","1951233","null","null","","","","clear_screen","","","","","","","","","","","","","","","","","","","","","","","","","",""
"","","","","","canvas-keyboard-response","44","191744","0.0-12.0-2.6","2d_cat_multi_stim_exp1","2022-4-8","15:29:18","25","75","3","9","10","40","30","120","23","18","[""White""]","No","Female","1951233","1074","u","learn","","","learn_trial","24.3324","66.2256","in","1","1","","","","","","","","","","","","","","","","","","","","",""
"","","","","","canvas-keyboard-response","45","192253","0.0-12.0-3.6","2d_cat_multi_stim_exp1","2022-4-8","15:29:18","25","75","3","9","10","40","30","120","23","18","[""White""]","No","Female","1951233","null","null","learn_feedback","","","learn_feedback","24.3324","66.2256","in","","","","","","","","","","","","","","","","","","","","","","",""
"","","","","","canvas-keyboard-response","46","192315","0.0-12.0-4.6","2d_cat_multi_stim_exp1","2022-4-8","15:29:18","25","75","3","9","10","40","30","120","23","18","[""White""]","No","Female","1951233","null","null","","","","clear_screen","","","","","","","","","","","","","","","","","","","","","","","","","",""
"","","","","","canvas-keyboard-response","47","192824","0.0-12.0-0.7","2d_cat_multi_stim_exp1","2022-4-8","15:29:18","25","75","3","9","10","40","30","120","23","18","[""White""]","No","Female","1951233","null","null","","","","fixation","","","","","","","","","","","","","","","","","","","","","","","","","",""
"","","","","","canvas-keyboard-response","48","193337","0.0-12.0-1.7","2d_cat_multi_stim_exp1","2022-4-8","15:29:18","25","75","3","9","10","40","30","120","23","18","[""White""]","No","Female","1951233","null","null","","","","clear_screen","","","","","","","","","","","","","","","","","","","","","","","","","",""
"","","","","","canvas-keyboard-response","49","194688","0.0-12.0-2.7","2d_cat_multi_stim_exp1","2022-4-8","15:29:18","25","75","3","9","10","40","30","120","23","18","[""White""]","No","Female","1951233","1343","i","learn","","","learn_trial","26.6667","40","out","0","1","","","","","","","","","","","","","","","","","","","","",""
"","","","","","canvas-keyboard-response","50","195197","0.0-12.0-3.7","2d_cat_multi_stim_exp1","2022-4-8","15:29:18","25","75","3","9","10","40","30","120","23","18","[""White""]","No","Female","1951233","null","null","learn_feedback","","","learn_feedback","26.6667","40","out","","","","","","","","","","","","","","","","","","","","","","",""
"","","","","","canvas-keyboard-response","51","195256","0.0-12.0-4.7","2d_cat_multi_stim_exp1","2022-4-8","15:29:18","25","75","3","9","10","40","30","120","23","18","[""White""]","No","Female","1951233","null","null","","","","clear_screen","","","","","","","","","","","","","","","","","","","","","","","","","",""
"","","","","","canvas-keyboard-response","52","195763","0.0-12.0-0.8","2d_cat_multi_stim_exp1","2022-4-8","15:29:18","25","75","3","9","10","40","30","120","23","18","[""White""]","No","Female","1951233","null","null","","","","fixation","","","","","","","","","","","","","","","","","","","","","","","","","",""
"","","","","","canvas-keyboard-response","53","196277","0.0-12.0-1.8","2d_cat_multi_stim_exp1","2022-4-8","15:29:18","25","75","3","9","10","40","30","120","23","18","[""White""]","No","Female","1951233","null","null","","","","clear_screen","","","","","","","","","","","","","","","","","","","","","","","","","",""
"","","","","","canvas-keyboard-response","54","197392","0.0-12.0-2.8","2d_cat_multi_stim_exp1","2022-4-8","15:29:18","25","75","3","9","10","40","30","120","23","18","[""White""]","No","Female","1951233","1107","i","learn","","","learn_trial","10","100","out","0","1","","","","","","","","","","","","","","","","","","","","",""
"","","","","","canvas-keyboard-response","55","197902","0.0-12.0-3.8","2d_cat_multi_stim_exp1","2022-4-8","15:29:18","25","75","3","9","10","40","30","120","23","18","[""White""]","No","Female","1951233","null","null","learn_feedback","","","learn_feedback","10","100","out","","","","","","","","","","","","","","","","","","","","","","",""
"","","","","","canvas-keyboard-response","56","197962","0.0-12.0-4.8","2d_cat_multi_stim_exp1","2022-4-8","15:29:18","25","75","3","9","10","40","30","120","23","18","[""White""]","No","Female","1951233","null","null","","","","clear_screen","","","","","","","","","","","","","","","","","","","","","","","","","",""
"","","","","","canvas-keyboard-response","57","198470","0.0-12.0-0.9","2d_cat_multi_stim_exp1","2022-4-8","15:29:18","25","75","3","9","10","40","30","120","23","18","[""White""]","No","Female","1951233","null","null","","","","fixation","","","","","","","","","","","","","","","","","","","","","","","","","",""
"","","","","","canvas-keyboard-response","58","198983","0.0-12.0-1.9","2d_cat_multi_stim_exp1","2022-4-8","15:29:18","25","75","3","9","10","40","30","120","23","18","[""White""]","No","Female","1951233","null","null","","","","clear_screen","","","","","","","","","","","","","","","","","","","","","","","","","",""
"","","","","","canvas-keyboard-response","59","200928","0.0-12.0-2.9","2d_cat_multi_stim_exp1","2022-4-8","15:29:18","25","75","3","9","10","40","30","120","23","18","[""White""]","No","Female","1951233","1937","u","learn","","","learn_trial","25","75","in","1","1","","","","","","","","","","","","","","","","","","","","",""
"","","","","","canvas-keyboard-response","60","201437","0.0-12.0-3.9","2d_cat_multi_stim_exp1","2022-4-8","15:29:18","25","75","3","9","10","40","30","120","23","18","[""White""]","No","Female","1951233","null","null","learn_feedback","","","learn_feedback","25","75","in","","","","","","","","","","","","","","","","","","","","","","",""
"","","","","","canvas-keyboard-response","61","201497","0.0-12.0-4.9","2d_cat_multi_stim_exp1","2022-4-8","15:29:18","25","75","3","9","10","40","30","120","23","18","[""White""]","No","Female","1951233","null","null","","","","clear_screen","","","","","","","","","","","","","","","","","","","","","","","","","",""
"","","","","","canvas-keyboard-response","62","202005","0.0-12.0-0.10","2d_cat_multi_stim_exp1","2022-4-8","15:29:18","25","75","3","9","10","40","30","120","23","18","[""White""]","No","Female","1951233","null","null","","","","fixation","","","","","","","","","","","","","","","","","","","","","","","","","",""
"","","","","","canvas-keyboard-response","63","202514","0.0-12.0-1.10","2d_cat_multi_stim_exp1","2022-4-8","15:29:18","25","75","3","9","10","40","30","120","23","18","[""White""]","No","Female","1951233","null","null","","","","clear_screen","","","","","","","","","","","","","","","","","","","","","","","","","",""
"","","","","","canvas-keyboard-response","64","203857","0.0-12.0-2.10","2d_cat_multi_stim_exp1","2022-4-8","15:29:18","25","75","3","9","10","40","30","120","23","18","[""White""]","No","Female","1951233","1330","u","learn","","","learn_trial","26.6667","90","out","1","0","","","","","","","","","","","","","","","","","","","","",""
"","","","","","canvas-keyboard-response","65","204867","0.0-12.0-3.10","2d_cat_multi_stim_exp1","2022-4-8","15:29:18","25","75","3","9","10","40","30","120","23","18","[""White""]","No","Female","1951233","null","null","learn_feedback","","","learn_feedback","26.6667","90","out","","","","","","","","","","","","","","","","","","","","","","",""
"","","","","","canvas-keyboard-response","66","204926","0.0-12.0-4.10","2d_cat_multi_stim_exp1","2022-4-8","15:29:18","25","75","3","9","10","40","30","120","23","18","[""White""]","No","Female","1951233","null","null","","","","clear_screen","","","","","","","","","","","","","","","","","","","","","","","","","",""
"","","","","","canvas-keyboard-response","67","205437","0.0-12.0-0.11","2d_cat_multi_stim_exp1","2022-4-8","15:29:18","25","75","3","9","10","40","30","120","23","18","[""White""]","No","Female","1951233","null","null","","","","fixation","","","","","","","","","","","","","","","","","","","","","","","","","",""
"","","","","","canvas-keyboard-response","68","205945","0.0-12.0-1.11","2d_cat_multi_stim_exp1","2022-4-8","15:29:18","25","75","3","9","10","40","30","120","23","18","[""White""]","No","Female","1951233","null","null","","","","clear_screen","","","","","","","","","","","","","","","","","","","","","","","","","",""
"","","","","","canvas-keyboard-response","69","207992","0.0-12.0-2.11","2d_cat_multi_stim_exp1","2022-4-8","15:29:18","25","75","3","9","10","40","30","120","23","18","[""White""]","No","Female","1951233","2036","u","learn","","","learn_trial","29.2426","62.2721","in","1","1","","","","","","","","","","","","","","","","","","","","",""
"","","","","","canvas-keyboard-response","70","208503","0.0-12.0-3.11","2d_cat_multi_stim_exp1","2022-4-8","15:29:18","25","75","3","9","10","40","30","120","23","18","[""White""]","No","Female","1951233","null","null","learn_feedback","","","learn_feedback","29.2426","62.2721","in","","","","","","","","","","","","","","","","","","","","","","",""
"","","","","","canvas-keyboard-response","71","208564","0.0-12.0-4.11","2d_cat_multi_stim_exp1","2022-4-8","15:29:18","25","75","3","9","10","40","30","120","23","18","[""White""]","No","Female","1951233","null","null","","","","clear_screen","","","","","","","","","","","","","","","","","","","","","","","","","",""
"","","","","","canvas-keyboard-response","72","209073","0.0-12.0-0.12","2d_cat_multi_stim_exp1","2022-4-8","15:29:18","25","75","3","9","10","40","30","120","23","18","[""White""]","No","Female","1951233","null","null","","","","fixation","","","","","","","","","","","","","","","","","","","","","","","","","",""
"","","","","","canvas-keyboard-response","73","209583","0.0-12.0-1.12","2d_cat_multi_stim_exp1","2022-4-8","15:29:18","25","75","3","9","10","40","30","120","23","18","[""White""]","No","Female","1951233","null","null","","","","clear_screen","","","","","","","","","","","","","","","","","","","","","","","","","",""
"","","","","","canvas-keyboard-response","74","210504","0.0-12.0-2.12","2d_cat_multi_stim_exp1","2022-4-8","15:29:18","25","75","3","9","10","40","30","120","23","18","[""White""]","No","Female","1951233","911","i","learn","","","learn_trial","20","120","out","0","1","","","","","","","","","","","","","","","","","","","","",""
"","","","","","canvas-keyboard-response","75","211014","0.0-12.0-3.12","2d_cat_multi_stim_exp1","2022-4-8","15:29:18","25","75","3","9","10","40","30","120","23","18","[""White""]","No","Female","1951233","null","null","learn_feedback","","","learn_feedback","20","120","out","","","","","","","","","","","","","","","","","","","","","","",""
"","","","","","canvas-keyboard-response","76","211076","0.0-12.0-4.12","2d_cat_multi_stim_exp1","2022-4-8","15:29:18","25","75","3","9","10","40","30","120","23","18","[""White""]","No","Female","1951233","null","null","","","","clear_screen","","","","","","","","","","","","","","","","","","","","","","","","","",""
"","","","","","canvas-keyboard-response","77","211583","0.0-12.0-0.13","2d_cat_multi_stim_exp1","2022-4-8","15:29:18","25","75","3","9","10","40","30","120","23","18","[""White""]","No","Female","1951233","null","null","","","","fixation","","","","","","","","","","","","","","","","","","","","","","","","","",""
"","","","","","canvas-keyboard-response","78","212093","0.0-12.0-1.13","2d_cat_multi_stim_exp1","2022-4-8","15:29:18","25","75","3","9","10","40","30","120","23","18","[""White""]","No","Female","1951233","null","null","","","","clear_screen","","","","","","","","","","","","","","","","","","","","","","","","","",""
"","","","","","canvas-keyboard-response","79","215033","0.0-12.0-2.13","2d_cat_multi_stim_exp1","2022-4-8","15:29:18","25","75","3","9","10","40","30","120","23","18","[""White""]","No","Female","1951233","2929","u","learn","","","learn_trial","33.3333","60","out","1","0","","","","","","","","","","","","","","","","","","","","",""
"","","","","","canvas-keyboard-response","80","216044","0.0-12.0-3.13","2d_cat_multi_stim_exp1","2022-4-8","15:29:18","25","75","3","9","10","40","30","120","23","18","[""White""]","No","Female","1951233","null","null","learn_feedback","","","learn_feedback","33.3333","60","out","","","","","","","","","","","","","","","","","","","","","","",""
"","","","","","canvas-keyboard-response","81","216108","0.0-12.0-4.13","2d_cat_multi_stim_exp1","2022-4-8","15:29:18","25","75","3","9","10","40","30","120","23","18","[""White""]","No","Female","1951233","null","null","","","","clear_screen","","","","","","","","","","","","","","","","","","","","","","","","","",""
"","","","","","canvas-keyboard-response","82","216617","0.0-12.0-0.14","2d_cat_multi_stim_exp1","2022-4-8","15:29:18","25","75","3","9","10","40","30","120","23","18","[""White""]","No","Female","1951233","null","null","","","","fixation","","","","","","","","","","","","","","","","","","","","","","","","","",""
"","","","","","canvas-keyboard-response","83","217131","0.0-12.0-1.14","2d_cat_multi_stim_exp1","2022-4-8","15:29:18","25","75","3","9","10","40","30","120","23","18","[""White""]","No","Female","1951233","null","null","","","","clear_screen","","","","","","","","","","","","","","","","","","","","","","","","","",""
"","","","","","canvas-keyboard-response","84","218993","0.0-12.0-2.14","2d_cat_multi_stim_exp1","2022-4-8","15:29:18","25","75","3","9","10","40","30","120","23","18","[""White""]","No","Female","1951233","1853","u","learn","","","learn_trial","33.3333","110","out","1","0","","","","","","","","","","","","","","","","","","","","",""
"","","","","","canvas-keyboard-response","85","220002","0.0-12.0-3.14","2d_cat_multi_stim_exp1","2022-4-8","15:29:18","25","75","3","9","10","40","30","120","23","18","[""White""]","No","Female","1951233","null","null","learn_feedback","","","learn_feedback","33.3333","110","out","","","","","","","","","","","","","","","","","","","","","","",""
"","","","","","canvas-keyboard-response","86","220064","0.0-12.0-4.14","2d_cat_multi_stim_exp1","2022-4-8","15:29:18","25","75","3","9","10","40","30","120","23","18","[""White""]","No","Female","1951233","null","null","","","","clear_screen","","","","","","","","","","","","","","","","","","","","","","","","","",""
"","","","","","canvas-keyboard-response","87","220572","0.0-12.0-0.15","2d_cat_multi_stim_exp1","2022-4-8","15:29:18","25","75","3","9","10","40","30","120","23","18","[""White""]","No","Female","1951233","null","null","","","","fixation","","","","","","","","","","","","","","","","","","","","","","","","","",""
"","","","","","canvas-keyboard-response","88","221082","0.0-12.0-1.15","2d_cat_multi_stim_exp1","2022-4-8","15:29:18","25","75","3","9","10","40","30","120","23","18","[""White""]","No","Female","1951233","null","null","","","","clear_screen","","","","","","","","","","","","","","","","","","","","","","","","","",""
"","","","","","canvas-keyboard-response","89","222767","0.0-12.0-2.15","2d_cat_multi_stim_exp1","2022-4-8","15:29:18","25","75","3","9","10","40","30","120","23","18","[""White""]","No","Female","1951233","1674","u","learn","","","learn_trial","25.4027","66.0815","in","1","1","","","","","","","","","","","","","","","","","","","","",""
"","","","","","canvas-keyboard-response","90","223271","0.0-12.0-3.15","2d_cat_multi_stim_exp1","2022-4-8","15:29:18","25","75","3","9","10","40","30","120","23","18","[""White""]","No","Female","1951233","null","null","learn_feedback","","","learn_feedback","25.4027","66.0815","in","","","","","","","","","","","","","","","","","","","","","","",""
"","","","","","canvas-keyboard-response","91","223330","0.0-12.0-4.15","2d_cat_multi_stim_exp1","2022-4-8","15:29:18","25","75","3","9","10","40","30","120","23","18","[""White""]","No","Female","1951233","null","null","","","","clear_screen","","","","","","","","","","","","","","","","","","","","","","","","","",""
"","","","","","canvas-keyboard-response","92","223838","0.0-12.0-0.16","2d_cat_multi_stim_exp1","2022-4-8","15:29:18","25","75","3","9","10","40","30","120","23","18","[""White""]","No","Female","1951233","null","null","","","","fixation","","","","","","","","","","","","","","","","","","","","","","","","","",""
"","","","","","canvas-keyboard-response","93","224349","0.0-12.0-1.16","2d_cat_multi_stim_exp1","2022-4-8","15:29:18","25","75","3","9","10","40","30","120","23","18","[""White""]","No","Female","1951233","null","null","","","","clear_screen","","","","","","","","","","","","","","","","","","","","","","","","","",""
"","","","","","canvas-keyboard-response","94","225632","0.0-12.0-2.16","2d_cat_multi_stim_exp1","2022-4-8","15:29:18","25","75","3","9","10","40","30","120","23","18","[""White""]","No","Female","1951233","1274","u","learn","","","learn_trial","26.6667","50","out","1","0","","","","","","","","","","","","","","","","","","","","",""
"","","","","","canvas-keyboard-response","95","226644","0.0-12.0-3.16","2d_cat_multi_stim_exp1","2022-4-8","15:29:18","25","75","3","9","10","40","30","120","23","18","[""White""]","No","Female","1951233","null","null","learn_feedback","","","learn_feedback","26.6667","50","out","","","","","","","","","","","","","","","","","","","","","","",""
"","","","","","canvas-keyboard-response","96","226707","0.0-12.0-4.16","2d_cat_multi_stim_exp1","2022-4-8","15:29:18","25","75","3","9","10","40","30","120","23","18","[""White""]","No","Female","1951233","null","null","","","","clear_screen","","","","","","","","","","","","","","","","","","","","","","","","","",""
"","","","","","canvas-keyboard-response","97","227217","0.0-12.0-0.17","2d_cat_multi_stim_exp1","2022-4-8","15:29:18","25","75","3","9","10","40","30","120","23","18","[""White""]","No","Female","1951233","null","null","","","","fixation","","","","","","","","","","","","","","","","","","","","","","","","","",""
"","","","","","canvas-keyboard-response","98","227730","0.0-12.0-1.17","2d_cat_multi_stim_exp1","2022-4-8","15:29:18","25","75","3","9","10","40","30","120","23","18","[""White""]","No","Female","1951233","null","null","","","","clear_screen","","","","","","","","","","","","","","","","","","","","","","","","","",""
"","","","","","canvas-keyboard-response","99","229048","0.0-12.0-2.17","2d_cat_multi_stim_exp1","2022-4-8","15:29:18","25","75","3","9","10","40","30","120","23","18","[""White""]","No","Female","1951233","1308","u","learn","","","learn_trial","25.9271","66.4405","in","1","1","","","","","","","","","","","","","","","","","","","","",""
"","","","","","canvas-keyboard-response","100","229558","0.0-12.0-3.17","2d_cat_multi_stim_exp1","2022-4-8","15:29:18","25","75","3","9","10","40","30","120","23","18","[""White""]","No","Female","1951233","null","null","learn_feedback","","","learn_feedback","25.9271","66.4405","in","","","","","","","","","","","","","","","","","","","","","","",""
"","","","","","canvas-keyboard-response","101","229618","0.0-12.0-4.17","2d_cat_multi_stim_exp1","2022-4-8","15:29:18","25","75","3","9","10","40","30","120","23","18","[""White""]","No","Female","1951233","null","null","","","","clear_screen","","","","","","","","","","","","","","","","","","","","","","","","","",""
"","","","","","canvas-keyboard-response","102","230127","0.0-12.0-0.18","2d_cat_multi_stim_exp1","2022-4-8","15:29:18","25","75","3","9","10","40","30","120","23","18","[""White""]","No","Female","1951233","null","null","","","","fixation","","","","","","","","","","","","","","","","","","","","","","","","","",""
"","","","","","canvas-keyboard-response","103","230636","0.0-12.0-1.18","2d_cat_multi_stim_exp1","2022-4-8","15:29:18","25","75","3","9","10","40","30","120","23","18","[""White""]","No","Female","1951233","null","null","","","","clear_screen","","","","","","","","","","","","","","","","","","","","","","","","","",""
"","","","","","canvas-keyboard-response","104","231855","0.0-12.0-2.18","2d_cat_multi_stim_exp1","2022-4-8","15:29:18","25","75","3","9","10","40","30","120","23","18","[""White""]","No","Female","1951233","1211","i","learn","","","learn_trial","40","80","out","0","1","","","","","","","","","","","","","","","","","","","","",""
"","","","","","canvas-keyboard-response","105","232366","0.0-12.0-3.18","2d_cat_multi_stim_exp1","2022-4-8","15:29:18","25","75","3","9","10","40","30","120","23","18","[""White""]","No","Female","1951233","null","null","learn_feedback","","","learn_feedback","40","80","out","","","","","","","","","","","","","","","","","","","","","","",""
"","","","","","canvas-keyboard-response","106","232428","0.0-12.0-4.18","2d_cat_multi_stim_exp1","2022-4-8","15:29:18","25","75","3","9","10","40","30","120","23","18","[""White""]","No","Female","1951233","null","null","","","","clear_screen","","","","","","","","","","","","","","","","","","","","","","","","","",""
"","","","","","canvas-keyboard-response","107","232935","0.0-12.0-0.19","2d_cat_multi_stim_exp1","2022-4-8","15:29:18","25","75","3","9","10","40","30","120","23","18","[""White""]","No","Female","1951233","null","null","","","","fixation","","","","","","","","","","","","","","","","","","","","","","","","","",""
"","","","","","canvas-keyboard-response","108","233448","0.0-12.0-1.19","2d_cat_multi_stim_exp1","2022-4-8","15:29:18","25","75","3","9","10","40","30","120","23","18","[""White""]","No","Female","1951233","null","null","","","","clear_screen","","","","","","","","","","","","","","","","","","","","","","","","","",""
"","","","","","canvas-keyboard-response","109","238241","0.0-12.0-2.19","2d_cat_multi_stim_exp1","2022-4-8","15:29:18","25","75","3","9","10","40","30","120","23","18","[""White""]","No","Female","1951233","4784","u","learn","","","learn_trial","25","75","in","1","1","","","","","","","","","","","","","","","","","","","","",""
"","","","","","canvas-keyboard-response","110","238753","0.0-12.0-3.19","2d_cat_multi_stim_exp1","2022-4-8","15:29:18","25","75","3","9","10","40","30","120","23","18","[""White""]","No","Female","1951233","null","null","learn_feedback","","","learn_feedback","25","75","in","","","","","","","","","","","","","","","","","","","","","","",""
"","","","","","canvas-keyboard-response","111","238816","0.0-12.0-4.19","2d_cat_multi_stim_exp1","2022-4-8","15:29:18","25","75","3","9","10","40","30","120","23","18","[""White""]","No","Female","1951233","null","null","","","","clear_screen","","","","","","","","","","","","","","","","","","","","","","","","","",""
"","","","","","canvas-keyboard-response","112","239328","0.0-12.0-0.20","2d_cat_multi_stim_exp1","2022-4-8","15:29:18","25","75","3","9","10","40","30","120","23","18","[""White""]","No","Female","1951233","null","null","","","","fixation","","","","","","","","","","","","","","","","","","","","","","","","","",""
"","","","","","canvas-keyboard-response","113","239843","0.0-12.0-1.20","2d_cat_multi_stim_exp1","2022-4-8","15:29:18","25","75","3","9","10","40","30","120","23","18","[""White""]","No","Female","1951233","null","null","","","","clear_screen","","","","","","","","","","","","","","","","","","","","","","","","","",""
"","","","","","canvas-keyboard-response","114","243024","0.0-12.0-2.20","2d_cat_multi_stim_exp1","2022-4-8","15:29:18","25","75","3","9","10","40","30","120","23","18","[""White""]","No","Female","1951233","3173","i","learn","","","learn_trial","25","75","in","0","0","","","","","","","","","","","","","","","","","","","","",""
"","","","","","canvas-keyboard-response","115","244034","0.0-12.0-3.20","2d_cat_multi_stim_exp1","2022-4-8","15:29:18","25","75","3","9","10","40","30","120","23","18","[""White""]","No","Female","1951233","null","null","learn_feedback","","","learn_feedback","25","75","in","","","","","","","","","","","","","","","","","","","","","","",""
"","","","","","canvas-keyboard-response","116","244093","0.0-12.0-4.20","2d_cat_multi_stim_exp1","2022-4-8","15:29:18","25","75","3","9","10","40","30","120","23","18","[""White""]","No","Female","1951233","null","null","","","","clear_screen","","","","","","","","","","","","","","","","","","","","","","","","","",""
"","","","","","canvas-keyboard-response","117","244604","0.0-12.0-0.21","2d_cat_multi_stim_exp1","2022-4-8","15:29:18","25","75","3","9","10","40","30","120","23","18","[""White""]","No","Female","1951233","null","null","","","","fixation","","","","","","","","","","","","","","","","","","","","","","","","","",""
"","","","","","canvas-keyboard-response","118","245117","0.0-12.0-1.21","2d_cat_multi_stim_exp1","2022-4-8","15:29:18","25","75","3","9","10","40","30","120","23","18","[""White""]","No","Female","1951233","null","null","","","","clear_screen","","","","","","","","","","","","","","","","","","","","","","","","","",""
"","","","","","canvas-keyboard-response","119","246626","0.0-12.0-2.21","2d_cat_multi_stim_exp1","2022-4-8","15:29:18","25","75","3","9","10","40","30","120","23","18","[""White""]","No","Female","1951233","1498","i","learn","","","learn_trial","30","40","out","0","1","","","","","","","","","","","","","","","","","","","","",""
"","","","","","canvas-keyboard-response","120","247135","0.0-12.0-3.21","2d_cat_multi_stim_exp1","2022-4-8","15:29:18","25","75","3","9","10","40","30","120","23","18","[""White""]","No","Female","1951233","null","null","learn_feedback","","","learn_feedback","30","40","out","","","","","","","","","","","","","","","","","","","","","","",""
"","","","","","canvas-keyboard-response","121","247195","0.0-12.0-4.21","2d_cat_multi_stim_exp1","2022-4-8","15:29:18","25","75","3","9","10","40","30","120","23","18","[""White""]","No","Female","1951233","null","null","","","","clear_screen","","","","","","","","","","","","","","","","","","","","","","","","","",""
"","","","","","canvas-keyboard-response","122","247704","0.0-12.0-0.22","2d_cat_multi_stim_exp1","2022-4-8","15:29:18","25","75","3","9","10","40","30","120","23","18","[""White""]","No","Female","1951233","null","null","","","","fixation","","","","","","","","","","","","","","","","","","","","","","","","","",""
"","","","","","canvas-keyboard-response","123","248213","0.0-12.0-1.22","2d_cat_multi_stim_exp1","2022-4-8","15:29:18","25","75","3","9","10","40","30","120","23","18","[""White""]","No","Female","1951233","null","null","","","","clear_screen","","","","","","","","","","","","","","","","","","","","","","","","","",""
"","","","","","canvas-keyboard-response","124","251031","0.0-12.0-2.22","2d_cat_multi_stim_exp1","2022-4-8","15:29:18","25","75","3","9","10","40","30","120","23","18","[""White""]","No","Female","1951233","2808","i","learn","","","learn_trial","25","75","in","0","0","","","","","","","","","","","","","","","","","","","","",""
"","","","","","canvas-keyboard-response","125","252040","0.0-12.0-3.22","2d_cat_multi_stim_exp1","2022-4-8","15:29:18","25","75","3","9","10","40","30","120","23","18","[""White""]","No","Female","1951233","null","null","learn_feedback","","","learn_feedback","25","75","in","","","","","","","","","","","","","","","","","","","","","","",""
"","","","","","canvas-keyboard-response","126","252101","0.0-12.0-4.22","2d_cat_multi_stim_exp1","2022-4-8","15:29:18","25","75","3","9","10","40","30","120","23","18","[""White""]","No","Female","1951233","null","null","","","","clear_screen","","","","","","","","","","","","","","","","","","","","","","","","","",""
"","","","","","canvas-keyboard-response","127","252608","0.0-12.0-0.23","2d_cat_multi_stim_exp1","2022-4-8","15:29:18","25","75","3","9","10","40","30","120","23","18","[""White""]","No","Female","1951233","null","null","","","","fixation","","","","","","","","","","","","","","","","","","","","","","","","","",""
"","","","","","canvas-keyboard-response","128","253120","0.0-12.0-1.23","2d_cat_multi_stim_exp1","2022-4-8","15:29:18","25","75","3","9","10","40","30","120","23","18","[""White""]","No","Female","1951233","null","null","","","","clear_screen","","","","","","","","","","","","","","","","","","","","","","","","","",""
"","","","","","canvas-keyboard-response","129","254256","0.0-12.0-2.23","2d_cat_multi_stim_exp1","2022-4-8","15:29:18","25","75","3","9","10","40","30","120","23","18","[""White""]","No","Female","1951233","1128","u","learn","","","learn_trial","26.6667","70","out","1","0","","","","","","","","","","","","","","","","","","","","",""
"","","","","","canvas-keyboard-response","130","255270","0.0-12.0-3.23","2d_cat_multi_stim_exp1","2022-4-8","15:29:18","25","75","3","9","10","40","30","120","23","18","[""White""]","No","Female","1951233","null","null","learn_feedback","","","learn_feedback","26.6667","70","out","","","","","","","","","","","","","","","","","","","","","","",""
"","","","","","canvas-keyboard-response","131","255329","0.0-12.0-4.23","2d_cat_multi_stim_exp1","2022-4-8","15:29:18","25","75","3","9","10","40","30","120","23","18","[""White""]","No","Female","1951233","null","null","","","","clear_screen","","","","","","","","","","","","","","","","","","","","","","","","","",""
"","","","","","canvas-keyboard-response","132","255838","0.0-12.0-0.24","2d_cat_multi_stim_exp1","2022-4-8","15:29:18","25","75","3","9","10","40","30","120","23","18","[""White""]","No","Female","1951233","null","null","","","","fixation","","","","","","","","","","","","","","","","","","","","","","","","","",""
"","","","","","canvas-keyboard-response","133","256349","0.0-12.0-1.24","2d_cat_multi_stim_exp1","2022-4-8","15:29:18","25","75","3","9","10","40","30","120","23","18","[""White""]","No","Female","1951233","null","null","","","","clear_screen","","","","","","","","","","","","","","","","","","","","","","","","","",""
"","","","","","canvas-keyboard-response","134","261888","0.0-12.0-2.24","2d_cat_multi_stim_exp1","2022-4-8","15:29:18","25","75","3","9","10","40","30","120","23","18","[""White""]","No","Female","1951233","5526","i","learn","","","learn_trial","36.6667","100","out","0","1","","","","","","","","","","","","","","","","","","","","",""
"","","","","","canvas-keyboard-response","135","262398","0.0-12.0-3.24","2d_cat_multi_stim_exp1","2022-4-8","15:29:18","25","75","3","9","10","40","30","120","23","18","[""White""]","No","Female","1951233","null","null","learn_feedback","","","learn_feedback","36.6667","100","out","","","","","","","","","","","","","","","","","","","","","","",""
"","","","","","canvas-keyboard-response","136","262461","0.0-12.0-4.24","2d_cat_multi_stim_exp1","2022-4-8","15:29:18","25","75","3","9","10","40","30","120","23","18","[""White""]","No","Female","1951233","null","null","","","","clear_screen","","","","","","","","","","","","","","","","","","","","","","","","","",""
"","","","","","canvas-keyboard-response","137","262969","0.0-12.0-0.25","2d_cat_multi_stim_exp1","2022-4-8","15:29:18","25","75","3","9","10","40","30","120","23","18","[""White""]","No","Female","1951233","null","null","","","","fixation","","","","","","","","","","","","","","","","","","","","","","","","","",""
"","","","","","canvas-keyboard-response","138","263478","0.0-12.0-1.25","2d_cat_multi_stim_exp1","2022-4-8","15:29:18","25","75","3","9","10","40","30","120","23","18","[""White""]","No","Female","1951233","null","null","","","","clear_screen","","","","","","","","","","","","","","","","","","","","","","","","","",""
"","","","","","canvas-keyboard-response","139","264832","0.0-12.0-2.25","2d_cat_multi_stim_exp1","2022-4-8","15:29:18","25","75","3","9","10","40","30","120","23","18","[""White""]","No","Female","1951233","1344","u","learn","","","learn_trial","23.3333","60","out","1","0","","","","","","","","","","","","","","","","","","","","",""
"","","","","","canvas-keyboard-response","140","265841","0.0-12.0-3.25","2d_cat_multi_stim_exp1","2022-4-8","15:29:18","25","75","3","9","10","40","30","120","23","18","[""White""]","No","Female","1951233","null","null","learn_feedback","","","learn_feedback","23.3333","60","out","","","","","","","","","","","","","","","","","","","","","","",""
"","","","","","canvas-keyboard-response","141","265904","0.0-12.0-4.25","2d_cat_multi_stim_exp1","2022-4-8","15:29:18","25","75","3","9","10","40","30","120","23","18","[""White""]","No","Female","1951233","null","null","","","","clear_screen","","","","","","","","","","","","","","","","","","","","","","","","","",""
"","","","","","canvas-keyboard-response","142","266414","0.0-12.0-0.26","2d_cat_multi_stim_exp1","2022-4-8","15:29:18","25","75","3","9","10","40","30","120","23","18","[""White""]","No","Female","1951233","null","null","","","","fixation","","","","","","","","","","","","","","","","","","","","","","","","","",""
"","","","","","canvas-keyboard-response","143","266925","0.0-12.0-1.26","2d_cat_multi_stim_exp1","2022-4-8","15:29:18","25","75","3","9","10","40","30","120","23","18","[""White""]","No","Female","1951233","null","null","","","","clear_screen","","","","","","","","","","","","","","","","","","","","","","","","","",""
"","","","","","canvas-keyboard-response","144","268376","0.0-12.0-2.26","2d_cat_multi_stim_exp1","2022-4-8","15:29:18","25","75","3","9","10","40","30","120","23","18","[""White""]","No","Female","1951233","1442","i","learn","","","learn_trial","36.6667","120","out","0","1","","","","","","","","","","","","","","","","","","","","",""
"","","","","","canvas-keyboard-response","145","268887","0.0-12.0-3.26","2d_cat_multi_stim_exp1","2022-4-8","15:29:18","25","75","3","9","10","40","30","120","23","18","[""White""]","No","Female","1951233","null","null","learn_feedback","","","learn_feedback","36.6667","120","out","","","","","","","","","","","","","","","","","","","","","","",""
"","","","","","canvas-keyboard-response","146","268948","0.0-12.0-4.26","2d_cat_multi_stim_exp1","2022-4-8","15:29:18","25","75","3","9","10","40","30","120","23","18","[""White""]","No","Female","1951233","null","null","","","","clear_screen","","","","","","","","","","","","","","","","","","","","","","","","","",""
"","","","","","canvas-keyboard-response","147","269457","0.0-12.0-0.27","2d_cat_multi_stim_exp1","2022-4-8","15:29:18","25","75","3","9","10","40","30","120","23","18","[""White""]","No","Female","1951233","null","null","","","","fixation","","","","","","","","","","","","","","","","","","","","","","","","","",""
"","","","","","canvas-keyboard-response","148","269969","0.0-12.0-1.27","2d_cat_multi_stim_exp1","2022-4-8","15:29:18","25","75","3","9","10","40","30","120","23","18","[""White""]","No","Female","1951233","null","null","","","","clear_screen","","","","","","","","","","","","","","","","","","","","","","","","","",""
"","","","","","canvas-keyboard-response","149","272768","0.0-12.0-2.27","2d_cat_multi_stim_exp1","2022-4-8","15:29:18","25","75","3","9","10","40","30","120","23","18","[""White""]","No","Female","1951233","2790","i","learn","","","learn_trial","20","60","out","0","1","","","","","","","","","","","","","","","","","","","","",""
"","","","","","canvas-keyboard-response","150","273278","0.0-12.0-3.27","2d_cat_multi_stim_exp1","2022-4-8","15:29:18","25","75","3","9","10","40","30","120","23","18","[""White""]","No","Female","1951233","null","null","learn_feedback","","","learn_feedback","20","60","out","","","","","","","","","","","","","","","","","","","","","","",""
"","","","","","canvas-keyboard-response","151","273340","0.0-12.0-4.27","2d_cat_multi_stim_exp1","2022-4-8","15:29:18","25","75","3","9","10","40","30","120","23","18","[""White""]","No","Female","1951233","null","null","","","","clear_screen","","","","","","","","","","","","","","","","","","","","","","","","","",""
"","","","","","canvas-keyboard-response","152","273851","0.0-12.0-0.28","2d_cat_multi_stim_exp1","2022-4-8","15:29:18","25","75","3","9","10","40","30","120","23","18","[""White""]","No","Female","1951233","null","null","","","","fixation","","","","","","","","","","","","","","","","","","","","","","","","","",""
"","","","","","canvas-keyboard-response","153","274364","0.0-12.0-1.28","2d_cat_multi_stim_exp1","2022-4-8","15:29:18","25","75","3","9","10","40","30","120","23","18","[""White""]","No","Female","1951233","null","null","","","","clear_screen","","","","","","","","","","","","","","","","","","","","","","","","","",""
"","","","","","canvas-keyboard-response","154","276016","0.0-12.0-2.28","2d_cat_multi_stim_exp1","2022-4-8","15:29:18","25","75","3","9","10","40","30","120","23","18","[""White""]","No","Female","1951233","1641","u","learn","","","learn_trial","25","75","in","1","1","","","","","","","","","","","","","","","","","","","","",""
"","","","","","canvas-keyboard-response","155","276526","0.0-12.0-3.28","2d_cat_multi_stim_exp1","2022-4-8","15:29:18","25","75","3","9","10","40","30","120","23","18","[""White""]","No","Female","1951233","null","null","learn_feedback","","","learn_feedback","25","75","in","","","","","","","","","","","","","","","","","","","","","","",""
"","","","","","canvas-keyboard-response","156","276586","0.0-12.0-4.28","2d_cat_multi_stim_exp1","2022-4-8","15:29:18","25","75","3","9","10","40","30","120","23","18","[""White""]","No","Female","1951233","null","null","","","","clear_screen","","","","","","","","","","","","","","","","","","","","","","","","","",""
"","","","","","canvas-keyboard-response","157","277095","0.0-12.0-0.29","2d_cat_multi_stim_exp1","2022-4-8","15:29:18","25","75","3","9","10","40","30","120","23","18","[""White""]","No","Female","1951233","null","null","","","","fixation","","","","","","","","","","","","","","","","","","","","","","","","","",""
"","","","","","canvas-keyboard-response","158","277606","0.0-12.0-1.29","2d_cat_multi_stim_exp1","2022-4-8","15:29:18","25","75","3","9","10","40","30","120","23","18","[""White""]","No","Female","1951233","null","null","","","","clear_screen","","","","","","","","","","","","","","","","","","","","","","","","","",""
"","","","","","canvas-keyboard-response","159","278968","0.0-12.0-2.29","2d_cat_multi_stim_exp1","2022-4-8","15:29:18","25","75","3","9","10","40","30","120","23","18","[""White""]","No","Female","1951233","1353","u","learn","","","learn_trial","25","75","in","1","1","","","","","","","","","","","","","","","","","","","","",""
"","","","","","canvas-keyboard-response","160","279477","0.0-12.0-3.29","2d_cat_multi_stim_exp1","2022-4-8","15:29:18","25","75","3","9","10","40","30","120","23","18","[""White""]","No","Female","1951233","null","null","learn_feedback","","","learn_feedback","25","75","in","","","","","","","","","","","","","","","","","","","","","","",""
"","","","","","canvas-keyboard-response","161","279539","0.0-12.0-4.29","2d_cat_multi_stim_exp1","2022-4-8","15:29:18","25","75","3","9","10","40","30","120","23","18","[""White""]","No","Female","1951233","null","null","","","","clear_screen","","","","","","","","","","","","","","","","","","","","","","","","","",""
"","","","","","canvas-keyboard-response","162","280049","0.0-12.0-0.30","2d_cat_multi_stim_exp1","2022-4-8","15:29:18","25","75","3","9","10","40","30","120","23","18","[""White""]","No","Female","1951233","null","null","","","","fixation","","","","","","","","","","","","","","","","","","","","","","","","","",""
"","","","","","canvas-keyboard-response","163","280563","0.0-12.0-1.30","2d_cat_multi_stim_exp1","2022-4-8","15:29:18","25","75","3","9","10","40","30","120","23","18","[""White""]","No","Female","1951233","null","null","","","","clear_screen","","","","","","","","","","","","","","","","","","","","","","","","","",""
"","","","","","canvas-keyboard-response","164","282183","0.0-12.0-2.30","2d_cat_multi_stim_exp1","2022-4-8","15:29:18","25","75","3","9","10","40","30","120","23","18","[""White""]","No","Female","1951233","1613","i","learn","","","learn_trial","27.2592","69.0786","in","0","0","","","","","","","","","","","","","","","","","","","","",""
"","","","","","canvas-keyboard-response","165","283195","0.0-12.0-3.30","2d_cat_multi_stim_exp1","2022-4-8","15:29:18","25","75","3","9","10","40","30","120","23","18","[""White""]","No","Female","1951233","null","null","learn_feedback","","","learn_feedback","27.2592","69.0786","in","","","","","","","","","","","","","","","","","","","","","","",""
"","","","","","canvas-keyboard-response","166","283257","0.0-12.0-4.30","2d_cat_multi_stim_exp1","2022-4-8","15:29:18","25","75","3","9","10","40","30","120","23","18","[""White""]","No","Female","1951233","null","null","","","","clear_screen","","","","","","","","","","","","","","","","","","","","","","","","","",""
"","","","","","canvas-keyboard-response","167","283760","0.0-12.0-0.31","2d_cat_multi_stim_exp1","2022-4-8","15:29:18","25","75","3","9","10","40","30","120","23","18","[""White""]","No","Female","1951233","null","null","","","","fixation","","","","","","","","","","","","","","","","","","","","","","","","","",""
"","","","","","canvas-keyboard-response","168","284272","0.0-12.0-1.31","2d_cat_multi_stim_exp1","2022-4-8","15:29:18","25","75","3","9","10","40","30","120","23","18","[""White""]","No","Female","1951233","null","null","","","","clear_screen","","","","","","","","","","","","","","","","","","","","","","","","","",""
"","","","","","canvas-keyboard-response","169","285768","0.0-12.0-2.31","2d_cat_multi_stim_exp1","2022-4-8","15:29:18","25","75","3","9","10","40","30","120","23","18","[""White""]","No","Female","1951233","1486","i","learn","","","learn_trial","20","70","out","0","1","","","","","","","","","","","","","","","","","","","","",""
"","","","","","canvas-keyboard-response","170","286280","0.0-12.0-3.31","2d_cat_multi_stim_exp1","2022-4-8","15:29:18","25","75","3","9","10","40","30","120","23","18","[""White""]","No","Female","1951233","null","null","learn_feedback","","","learn_feedback","20","70","out","","","","","","","","","","","","","","","","","","","","","","",""
"","","","","","canvas-keyboard-response","171","286339","0.0-12.0-4.31","2d_cat_multi_stim_exp1","2022-4-8","15:29:18","25","75","3","9","10","40","30","120","23","18","[""White""]","No","Female","1951233","null","null","","","","clear_screen","","","","","","","","","","","","","","","","","","","","","","","","","",""
"","","","","","canvas-keyboard-response","172","286850","0.0-12.0-0.32","2d_cat_multi_stim_exp1","2022-4-8","15:29:18","25","75","3","9","10","40","30","120","23","18","[""White""]","No","Female","1951233","null","null","","","","fixation","","","","","","","","","","","","","","","","","","","","","","","","","",""
"","","","","","canvas-keyboard-response","173","287361","0.0-12.0-1.32","2d_cat_multi_stim_exp1","2022-4-8","15:29:18","25","75","3","9","10","40","30","120","23","18","[""White""]","No","Female","1951233","null","null","","","","clear_screen","","","","","","","","","","","","","","","","","","","","","","","","","",""
"","","","","","canvas-keyboard-response","174","289441","0.0-12.0-2.32","2d_cat_multi_stim_exp1","2022-4-8","15:29:18","25","75","3","9","10","40","30","120","23","18","[""White""]","No","Female","1951233","2070","u","learn","","","learn_trial","22.1081","72.6057","in","1","1","","","","","","","","","","","","","","","","","","","","",""
"","","","","","canvas-keyboard-response","175","289949","0.0-12.0-3.32","2d_cat_multi_stim_exp1","2022-4-8","15:29:18","25","75","3","9","10","40","30","120","23","18","[""White""]","No","Female","1951233","null","null","learn_feedback","","","learn_feedback","22.1081","72.6057","in","","","","","","","","","","","","","","","","","","","","","","",""
"","","","","","canvas-keyboard-response","176","290012","0.0-12.0-4.32","2d_cat_multi_stim_exp1","2022-4-8","15:29:18","25","75","3","9","10","40","30","120","23","18","[""White""]","No","Female","1951233","null","null","","","","clear_screen","","","","","","","","","","","","","","","","","","","","","","","","","",""
"","","","","","canvas-keyboard-response","177","290519","0.0-12.0-0.33","2d_cat_multi_stim_exp1","2022-4-8","15:29:18","25","75","3","9","10","40","30","120","23","18","[""White""]","No","Female","1951233","null","null","","","","fixation","","","","","","","","","","","","","","","","","","","","","","","","","",""
"","","","","","canvas-keyboard-response","178","291029","0.0-12.0-1.33","2d_cat_multi_stim_exp1","2022-4-8","15:29:18","25","75","3","9","10","40","30","120","23","18","[""White""]","No","Female","1951233","null","null","","","","clear_screen","","","","","","","","","","","","","","","","","","","","","","","","","",""
"","","","","","canvas-keyboard-response","179","292728","0.0-12.0-2.33","2d_cat_multi_stim_exp1","2022-4-8","15:29:18","25","75","3","9","10","40","30","120","23","18","[""White""]","No","Female","1951233","1691","i","learn","","","learn_trial","19","75","in","0","0","","","","","","","","","","","","","","","","","","","","",""
"","","","","","canvas-keyboard-response","180","293739","0.0-12.0-3.33","2d_cat_multi_stim_exp1","2022-4-8","15:29:18","25","75","3","9","10","40","30","120","23","18","[""White""]","No","Female","1951233","null","null","learn_feedback","","","learn_feedback","19","75","in","","","","","","","","","","","","","","","","","","","","","","",""
"","","","","","canvas-keyboard-response","181","293801","0.0-12.0-4.33","2d_cat_multi_stim_exp1","2022-4-8","15:29:18","25","75","3","9","10","40","30","120","23","18","[""White""]","No","Female","1951233","null","null","","","","clear_screen","","","","","","","","","","","","","","","","","","","","","","","","","",""
"","","","","","canvas-keyboard-response","182","294309","0.0-12.0-0.34","2d_cat_multi_stim_exp1","2022-4-8","15:29:18","25","75","3","9","10","40","30","120","23","18","[""White""]","No","Female","1951233","null","null","","","","fixation","","","","","","","","","","","","","","","","","","","","","","","","","",""
"","","","","","canvas-keyboard-response","183","294821","0.0-12.0-1.34","2d_cat_multi_stim_exp1","2022-4-8","15:29:18","25","75","3","9","10","40","30","120","23","18","[""White""]","No","Female","1951233","null","null","","","","clear_screen","","","","","","","","","","","","","","","","","","","","","","","","","",""
"","","","","","canvas-keyboard-response","184","296368","0.0-12.0-2.34","2d_cat_multi_stim_exp1","2022-4-8","15:29:18","25","75","3","9","10","40","30","120","23","18","[""White""]","No","Female","1951233","1540","i","learn","","","learn_trial","16.6667","80","out","0","1","","","","","","","","","","","","","","","","","","","","",""
"","","","","","canvas-keyboard-response","185","296880","0.0-12.0-3.34","2d_cat_multi_stim_exp1","2022-4-8","15:29:18","25","75","3","9","10","40","30","120","23","18","[""White""]","No","Female","1951233","null","null","learn_feedback","","","learn_feedback","16.6667","80","out","","","","","","","","","","","","","","","","","","","","","","",""
"","","","","","canvas-keyboard-response","186","296943","0.0-12.0-4.34","2d_cat_multi_stim_exp1","2022-4-8","15:29:18","25","75","3","9","10","40","30","120","23","18","[""White""]","No","Female","1951233","null","null","","","","clear_screen","","","","","","","","","","","","","","","","","","","","","","","","","",""
"","","","","","canvas-keyboard-response","187","297453","0.0-12.0-0.35","2d_cat_multi_stim_exp1","2022-4-8","15:29:18","25","75","3","9","10","40","30","120","23","18","[""White""]","No","Female","1951233","null","null","","","","fixation","","","","","","","","","","","","","","","","","","","","","","","","","",""
"","","","","","canvas-keyboard-response","188","297966","0.0-12.0-1.35","2d_cat_multi_stim_exp1","2022-4-8","15:29:18","25","75","3","9","10","40","30","120","23","18","[""White""]","No","Female","1951233","null","null","","","","clear_screen","","","","","","","","","","","","","","","","","","","","","","","","","",""
"","","","","","canvas-keyboard-response","189","301584","0.0-12.0-2.35","2d_cat_multi_stim_exp1","2022-4-8","15:29:18","25","75","3","9","10","40","30","120","23","18","[""White""]","No","Female","1951233","3610","i","learn","","","learn_trial","23.8209","83.2757","in","0","0","","","","","","","","","","","","","","","","","","","","",""
"","","","","","canvas-keyboard-response","190","302594","0.0-12.0-3.35","2d_cat_multi_stim_exp1","2022-4-8","15:29:18","25","75","3","9","10","40","30","120","23","18","[""White""]","No","Female","1951233","null","null","learn_feedback","","","learn_feedback","23.8209","83.2757","in","","","","","","","","","","","","","","","","","","","","","","",""
"","","","","","canvas-keyboard-response","191","302653","0.0-12.0-4.35","2d_cat_multi_stim_exp1","2022-4-8","15:29:18","25","75","3","9","10","40","30","120","23","18","[""White""]","No","Female","1951233","null","null","","","","clear_screen","","","","","","","","","","","","","","","","","","","","","","","","","",""
"","","","","","canvas-keyboard-response","192","303163","0.0-12.0-0.36","2d_cat_multi_stim_exp1","2022-4-8","15:29:18","25","75","3","9","10","40","30","120","23","18","[""White""]","No","Female","1951233","null","null","","","","fixation","","","","","","","","","","","","","","","","","","","","","","","","","",""
"","","","","","canvas-keyboard-response","193","303677","0.0-12.0-1.36","2d_cat_multi_stim_exp1","2022-4-8","15:29:18","25","75","3","9","10","40","30","120","23","18","[""White""]","No","Female","1951233","null","null","","","","clear_screen","","","","","","","","","","","","","","","","","","","","","","","","","",""
"","","","","","canvas-keyboard-response","194","305920","0.0-12.0-2.36","2d_cat_multi_stim_exp1","2022-4-8","15:29:18","25","75","3","9","10","40","30","120","23","18","[""White""]","No","Female","1951233","2230","u","learn","","","learn_trial","25","75","in","1","1","","","","","","","","","","","","","","","","","","","","",""
"","","","","","canvas-keyboard-response","195","306431","0.0-12.0-3.36","2d_cat_multi_stim_exp1","2022-4-8","15:29:18","25","75","3","9","10","40","30","120","23","18","[""White""]","No","Female","1951233","null","null","learn_feedback","","","learn_feedback","25","75","in","","","","","","","","","","","","","","","","","","","","","","",""
"","","","","","canvas-keyboard-response","196","306495","0.0-12.0-4.36","2d_cat_multi_stim_exp1","2022-4-8","15:29:18","25","75","3","9","10","40","30","120","23","18","[""White""]","No","Female","1951233","null","null","","","","clear_screen","","","","","","","","","","","","","","","","","","","","","","","","","",""
"","","","","","canvas-keyboard-response","197","307005","0.0-12.0-0.37","2d_cat_multi_stim_exp1","2022-4-8","15:29:18","25","75","3","9","10","40","30","120","23","18","[""White""]","No","Female","1951233","null","null","","","","fixation","","","","","","","","","","","","","","","","","","","","","","","","","",""
"","","","","","canvas-keyboard-response","198","307516","0.0-12.0-1.37","2d_cat_multi_stim_exp1","2022-4-8","15:29:18","25","75","3","9","10","40","30","120","23","18","[""White""]","No","Female","1951233","null","null","","","","clear_screen","","","","","","","","","","","","","","","","","","","","","","","","","",""
"","","","","","canvas-keyboard-response","199","310313","0.0-12.0-2.37","2d_cat_multi_stim_exp1","2022-4-8","15:29:18","25","75","3","9","10","40","30","120","23","18","[""White""]","No","Female","1951233","2787","u","learn","","","learn_trial","25","75","in","1","1","","","","","","","","","","","","","","","","","","","","",""
"","","","","","canvas-keyboard-response","200","310822","0.0-12.0-3.37","2d_cat_multi_stim_exp1","2022-4-8","15:29:18","25","75","3","9","10","40","30","120","23","18","[""White""]","No","Female","1951233","null","null","learn_feedback","","","learn_feedback","25","75","in","","","","","","","","","","","","","","","","","","","","","","",""
"","","","","","canvas-keyboard-response","201","310884","0.0-12.0-4.37","2d_cat_multi_stim_exp1","2022-4-8","15:29:18","25","75","3","9","10","40","30","120","23","18","[""White""]","No","Female","1951233","null","null","","","","clear_screen","","","","","","","","","","","","","","","","","","","","","","","","","",""
"","","","","","canvas-keyboard-response","202","311395","0.0-12.0-0.38","2d_cat_multi_stim_exp1","2022-4-8","15:29:18","25","75","3","9","10","40","30","120","23","18","[""White""]","No","Female","1951233","null","null","","","","fixation","","","","","","","","","","","","","","","","","","","","","","","","","",""
"","","","","","canvas-keyboard-response","203","311910","0.0-12.0-1.38","2d_cat_multi_stim_exp1","2022-4-8","15:29:18","25","75","3","9","10","40","30","120","23","18","[""White""]","No","Female","1951233","null","null","","","","clear_screen","","","","","","","","","","","","","","","","","","","","","","","","","",""
"","","","","","canvas-keyboard-response","204","313928","0.0-12.0-2.38","2d_cat_multi_stim_exp1","2022-4-8","15:29:18","25","75","3","9","10","40","30","120","23","18","[""White""]","No","Female","1951233","2009","i","learn","","","learn_trial","33.3333","80","out","0","1","","","","","","","","","","","","","","","","","","","","",""
"","","","","","canvas-keyboard-response","205","314441","0.0-12.0-3.38","2d_cat_multi_stim_exp1","2022-4-8","15:29:18","25","75","3","9","10","40","30","120","23","18","[""White""]","No","Female","1951233","null","null","learn_feedback","","","learn_feedback","33.3333","80","out","","","","","","","","","","","","","","","","","","","","","","",""
"","","","","","canvas-keyboard-response","206","314501","0.0-12.0-4.38","2d_cat_multi_stim_exp1","2022-4-8","15:29:18","25","75","3","9","10","40","30","120","23","18","[""White""]","No","Female","1951233","null","null","","","","clear_screen","","","","","","","","","","","","","","","","","","","","","","","","","",""
"","","","","","canvas-keyboard-response","207","315007","0.0-12.0-0.39","2d_cat_multi_stim_exp1","2022-4-8","15:29:18","25","75","3","9","10","40","30","120","23","18","[""White""]","No","Female","1951233","null","null","","","","fixation","","","","","","","","","","","","","","","","","","","","","","","","","",""
"","","","","","canvas-keyboard-response","208","315517","0.0-12.0-1.39","2d_cat_multi_stim_exp1","2022-4-8","15:29:18","25","75","3","9","10","40","30","120","23","18","[""White""]","No","Female","1951233","null","null","","","","clear_screen","","","","","","","","","","","","","","","","","","","","","","","","","",""
"","","","","","canvas-keyboard-response","209","316736","0.0-12.0-2.39","2d_cat_multi_stim_exp1","2022-4-8","15:29:18","25","75","3","9","10","40","30","120","23","18","[""White""]","No","Female","1951233","1209","u","learn","","","learn_trial","25","75","in","1","1","","","","","","","","","","","","","","","","","","","","",""
"","","","","","canvas-keyboard-response","210","317247","0.0-12.0-3.39","2d_cat_multi_stim_exp1","2022-4-8","15:29:18","25","75","3","9","10","40","30","120","23","18","[""White""]","No","Female","1951233","null","null","learn_feedback","","","learn_feedback","25","75","in","","","","","","","","","","","","","","","","","","","","","","",""
"","","","","","canvas-keyboard-response","211","317308","0.0-12.0-4.39","2d_cat_multi_stim_exp1","2022-4-8","15:29:18","25","75","3","9","10","40","30","120","23","18","[""White""]","No","Female","1951233","null","null","","","","clear_screen","","","","","","","","","","","","","","","","","","","","","","","","","",""
"","","","","","canvas-keyboard-response","212","317818","0.0-12.0-0.40","2d_cat_multi_stim_exp1","2022-4-8","15:29:18","25","75","3","9","10","40","30","120","23","18","[""White""]","No","Female","1951233","null","null","","","","fixation","","","","","","","","","","","","","","","","","","","","","","","","","",""
"","","","","","canvas-keyboard-response","213","318327","0.0-12.0-1.40","2d_cat_multi_stim_exp1","2022-4-8","15:29:18","25","75","3","9","10","40","30","120","23","18","[""White""]","No","Female","1951233","null","null","","","","clear_screen","","","","","","","","","","","","","","","","","","","","","","","","","",""
"","","","","","canvas-keyboard-response","214","319824","0.0-12.0-2.40","2d_cat_multi_stim_exp1","2022-4-8","15:29:18","25","75","3","9","10","40","30","120","23","18","[""White""]","No","Female","1951233","1485","u","learn","","","learn_trial","23.3473","67.4888","in","1","1","","","","","","","","","","","","","","","","","","","","",""
"","","","","","canvas-keyboard-response","215","320335","0.0-12.0-3.40","2d_cat_multi_stim_exp1","2022-4-8","15:29:18","25","75","3","9","10","40","30","120","23","18","[""White""]","No","Female","1951233","null","null","learn_feedback","","","learn_feedback","23.3473","67.4888","in","","","","","","","","","","","","","","","","","","","","","","",""
"","","","","","canvas-keyboard-response","216","320396","0.0-12.0-4.40","2d_cat_multi_stim_exp1","2022-4-8","15:29:18","25","75","3","9","10","40","30","120","23","18","[""White""]","No","Female","1951233","null","null","","","","clear_screen","","","","","","","","","","","","","","","","","","","","","","","","","",""
"","","","","","canvas-keyboard-response","217","320906","0.0-12.0-0.41","2d_cat_multi_stim_exp1","2022-4-8","15:29:18","25","75","3","9","10","40","30","120","23","18","[""White""]","No","Female","1951233","null","null","","","","fixation","","","","","","","","","","","","","","","","","","","","","","","","","",""
"","","","","","canvas-keyboard-response","218","321419","0.0-12.0-1.41","2d_cat_multi_stim_exp1","2022-4-8","15:29:18","25","75","3","9","10","40","30","120","23","18","[""White""]","No","Female","1951233","null","null","","","","clear_screen","","","","","","","","","","","","","","","","","","","","","","","","","",""
"","","","","","canvas-keyboard-response","219","322776","0.0-12.0-2.41","2d_cat_multi_stim_exp1","2022-4-8","15:29:18","25","75","3","9","10","40","30","120","23","18","[""White""]","No","Female","1951233","1348","i","learn","","","learn_trial","23.3333","50","out","0","1","","","","","","","","","","","","","","","","","","","","",""
"","","","","","canvas-keyboard-response","220","323287","0.0-12.0-3.41","2d_cat_multi_stim_exp1","2022-4-8","15:29:18","25","75","3","9","10","40","30","120","23","18","[""White""]","No","Female","1951233","null","null","learn_feedback","","","learn_feedback","23.3333","50","out","","","","","","","","","","","","","","","","","","","","","","",""
"","","","","","canvas-keyboard-response","221","323346","0.0-12.0-4.41","2d_cat_multi_stim_exp1","2022-4-8","15:29:18","25","75","3","9","10","40","30","120","23","18","[""White""]","No","Female","1951233","null","null","","","","clear_screen","","","","","","","","","","","","","","","","","","","","","","","","","",""
"","","","","","canvas-keyboard-response","222","323854","0.0-12.0-0.42","2d_cat_multi_stim_exp1","2022-4-8","15:29:18","25","75","3","9","10","40","30","120","23","18","[""White""]","No","Female","1951233","null","null","","","","fixation","","","","","","","","","","","","","","","","","","","","","","","","","",""
"","","","","","canvas-keyboard-response","223","324368","0.0-12.0-1.42","2d_cat_multi_stim_exp1","2022-4-8","15:29:18","25","75","3","9","10","40","30","120","23","18","[""White""]","No","Female","1951233","null","null","","","","clear_screen","","","","","","","","","","","","","","","","","","","","","","","","","",""
"","","","","","canvas-keyboard-response","224","325240","0.0-12.0-2.42","2d_cat_multi_stim_exp1","2022-4-8","15:29:18","25","75","3","9","10","40","30","120","23","18","[""White""]","No","Female","1951233","864","i","learn","","","learn_trial","16.6667","40","out","0","1","","","","","","","","","","","","","","","","","","","","",""
"","","","","","canvas-keyboard-response","225","325750","0.0-12.0-3.42","2d_cat_multi_stim_exp1","2022-4-8","15:29:18","25","75","3","9","10","40","30","120","23","18","[""White""]","No","Female","1951233","null","null","learn_feedback","","","learn_feedback","16.6667","40","out","","","","","","","","","","","","","","","","","","","","","","",""
"","","","","","canvas-keyboard-response","226","325811","0.0-12.0-4.42","2d_cat_multi_stim_exp1","2022-4-8","15:29:18","25","75","3","9","10","40","30","120","23","18","[""White""]","No","Female","1951233","null","null","","","","clear_screen","","","","","","","","","","","","","","","","","","","","","","","","","",""
"","","","","","canvas-keyboard-response","227","326322","0.0-12.0-0.43","2d_cat_multi_stim_exp1","2022-4-8","15:29:18","25","75","3","9","10","40","30","120","23","18","[""White""]","No","Female","1951233","null","null","","","","fixation","","","","","","","","","","","","","","","","","","","","","","","","","",""
"","","","","","canvas-keyboard-response","228","326832","0.0-12.0-1.43","2d_cat_multi_stim_exp1","2022-4-8","15:29:18","25","75","3","9","10","40","30","120","23","18","[""White""]","No","Female","1951233","null","null","","","","clear_screen","","","","","","","","","","","","","","","","","","","","","","","","","",""
"","","","","","canvas-keyboard-response","229","327872","0.0-12.0-2.43","2d_cat_multi_stim_exp1","2022-4-8","15:29:18","25","75","3","9","10","40","30","120","23","18","[""White""]","No","Female","1951233","1030","i","learn","","","learn_trial","30","30","out","0","1","","","","","","","","","","","","","","","","","","","","",""
"","","","","","canvas-keyboard-response","230","328382","0.0-12.0-3.43","2d_cat_multi_stim_exp1","2022-4-8","15:29:18","25","75","3","9","10","40","30","120","23","18","[""White""]","No","Female","1951233","null","null","learn_feedback","","","learn_feedback","30","30","out","","","","","","","","","","","","","","","","","","","","","","",""
"","","","","","canvas-keyboard-response","231","328445","0.0-12.0-4.43","2d_cat_multi_stim_exp1","2022-4-8","15:29:18","25","75","3","9","10","40","30","120","23","18","[""White""]","No","Female","1951233","null","null","","","","clear_screen","","","","","","","","","","","","","","","","","","","","","","","","","",""
"","","","","","canvas-keyboard-response","232","328953","0.0-12.0-0.44","2d_cat_multi_stim_exp1","2022-4-8","15:29:18","25","75","3","9","10","40","30","120","23","18","[""White""]","No","Female","1951233","null","null","","","","fixation","","","","","","","","","","","","","","","","","","","","","","","","","",""
"","","","","","canvas-keyboard-response","233","329467","0.0-12.0-1.44","2d_cat_multi_stim_exp1","2022-4-8","15:29:18","25","75","3","9","10","40","30","120","23","18","[""White""]","No","Female","1951233","null","null","","","","clear_screen","","","","","","","","","","","","","","","","","","","","","","","","","",""
"","","","","","canvas-keyboard-response","234","330480","0.0-12.0-2.44","2d_cat_multi_stim_exp1","2022-4-8","15:29:18","25","75","3","9","10","40","30","120","23","18","[""White""]","No","Female","1951233","1003","i","learn","","","learn_trial","20","80","out","0","1","","","","","","","","","","","","","","","","","","","","",""
"","","","","","canvas-keyboard-response","235","330990","0.0-12.0-3.44","2d_cat_multi_stim_exp1","2022-4-8","15:29:18","25","75","3","9","10","40","30","120","23","18","[""White""]","No","Female","1951233","null","null","learn_feedback","","","learn_feedback","20","80","out","","","","","","","","","","","","","","","","","","","","","","",""
"","","","","","canvas-keyboard-response","236","331050","0.0-12.0-4.44","2d_cat_multi_stim_exp1","2022-4-8","15:29:18","25","75","3","9","10","40","30","120","23","18","[""White""]","No","Female","1951233","null","null","","","","clear_screen","","","","","","","","","","","","","","","","","","","","","","","","","",""
"","","","","","canvas-keyboard-response","237","331560","0.0-12.0-0.45","2d_cat_multi_stim_exp1","2022-4-8","15:29:18","25","75","3","9","10","40","30","120","23","18","[""White""]","No","Female","1951233","null","null","","","","fixation","","","","","","","","","","","","","","","","","","","","","","","","","",""
"","","","","","canvas-keyboard-response","238","332074","0.0-12.0-1.45","2d_cat_multi_stim_exp1","2022-4-8","15:29:18","25","75","3","9","10","40","30","120","23","18","[""White""]","No","Female","1951233","null","null","","","","clear_screen","","","","","","","","","","","","","","","","","","","","","","","","","",""
"","","","","","canvas-keyboard-response","239","333736","0.0-12.0-2.45","2d_cat_multi_stim_exp1","2022-4-8","15:29:18","25","75","3","9","10","40","30","120","23","18","[""White""]","No","Female","1951233","1655","i","learn","","","learn_trial","33.3333","70","out","0","1","","","","","","","","","","","","","","","","","","","","",""
"","","","","","canvas-keyboard-response","240","334243","0.0-12.0-3.45","2d_cat_multi_stim_exp1","2022-4-8","15:29:18","25","75","3","9","10","40","30","120","23","18","[""White""]","No","Female","1951233","null","null","learn_feedback","","","learn_feedback","33.3333","70","out","","","","","","","","","","","","","","","","","","","","","","",""
"","","","","","canvas-keyboard-response","241","334306","0.0-12.0-4.45","2d_cat_multi_stim_exp1","2022-4-8","15:29:18","25","75","3","9","10","40","30","120","23","18","[""White""]","No","Female","1951233","null","null","","","","clear_screen","","","","","","","","","","","","","","","","","","","","","","","","","",""
"","","","","","canvas-keyboard-response","242","334816","0.0-12.0-0.46","2d_cat_multi_stim_exp1","2022-4-8","15:29:18","25","75","3","9","10","40","30","120","23","18","[""White""]","No","Female","1951233","null","null","","","","fixation","","","","","","","","","","","","","","","","","","","","","","","","","",""
"","","","","","canvas-keyboard-response","243","335326","0.0-12.0-1.46","2d_cat_multi_stim_exp1","2022-4-8","15:29:18","25","75","3","9","10","40","30","120","23","18","[""White""]","No","Female","1951233","null","null","","","","clear_screen","","","","","","","","","","","","","","","","","","","","","","","","","",""
"","","","","","canvas-keyboard-response","244","336440","0.0-12.0-2.46","2d_cat_multi_stim_exp1","2022-4-8","15:29:18","25","75","3","9","10","40","30","120","23","18","[""White""]","No","Female","1951233","1104","i","learn","","","learn_trial","26.6667","30","out","0","1","","","","","","","","","","","","","","","","","","","","",""
"","","","","","canvas-keyboard-response","245","336948","0.0-12.0-3.46","2d_cat_multi_stim_exp1","2022-4-8","15:29:18","25","75","3","9","10","40","30","120","23","18","[""White""]","No","Female","1951233","null","null","learn_feedback","","","learn_feedback","26.6667","30","out","","","","","","","","","","","","","","","","","","","","","","",""
"","","","","","canvas-keyboard-response","246","337012","0.0-12.0-4.46","2d_cat_multi_stim_exp1","2022-4-8","15:29:18","25","75","3","9","10","40","30","120","23","18","[""White""]","No","Female","1951233","null","null","","","","clear_screen","","","","","","","","","","","","","","","","","","","","","","","","","",""
"","","","","","canvas-keyboard-response","247","337521","0.0-12.0-0.47","2d_cat_multi_stim_exp1","2022-4-8","15:29:18","25","75","3","9","10","40","30","120","23","18","[""White""]","No","Female","1951233","null","null","","","","fixation","","","","","","","","","","","","","","","","","","","","","","","","","",""
"","","","","","canvas-keyboard-response","248","338035","0.0-12.0-1.47","2d_cat_multi_stim_exp1","2022-4-8","15:29:18","25","75","3","9","10","40","30","120","23","18","[""White""]","No","Female","1951233","null","null","","","","clear_screen","","","","","","","","","","","","","","","","","","","","","","","","","",""
"","","","","","canvas-keyboard-response","249","340616","0.0-12.0-2.47","2d_cat_multi_stim_exp1","2022-4-8","15:29:18","25","75","3","9","10","40","30","120","23","18","[""White""]","No","Female","1951233","2571","u","learn","","","learn_trial","25","75","in","1","1","","","","","","","","","","","","","","","","","","","","",""
"","","","","","canvas-keyboard-response","250","341127","0.0-12.0-3.47","2d_cat_multi_stim_exp1","2022-4-8","15:29:18","25","75","3","9","10","40","30","120","23","18","[""White""]","No","Female","1951233","null","null","learn_feedback","","","learn_feedback","25","75","in","","","","","","","","","","","","","","","","","","","","","","",""
"","","","","","canvas-keyboard-response","251","341189","0.0-12.0-4.47","2d_cat_multi_stim_exp1","2022-4-8","15:29:18","25","75","3","9","10","40","30","120","23","18","[""White""]","No","Female","1951233","null","null","","","","clear_screen","","","","","","","","","","","","","","","","","","","","","","","","","",""
"","","","","","canvas-keyboard-response","252","341699","0.0-12.0-0.48","2d_cat_multi_stim_exp1","2022-4-8","15:29:18","25","75","3","9","10","40","30","120","23","18","[""White""]","No","Female","1951233","null","null","","","","fixation","","","","","","","","","","","","","","","","","","","","","","","","","",""
"","","","","","canvas-keyboard-response","253","342210","0.0-12.0-1.48","2d_cat_multi_stim_exp1","2022-4-8","15:29:18","25","75","3","9","10","40","30","120","23","18","[""White""]","No","Female","1951233","null","null","","","","clear_screen","","","","","","","","","","","","","","","","","","","","","","","","","",""
"","","","","","canvas-keyboard-response","254","343400","0.0-12.0-2.48","2d_cat_multi_stim_exp1","2022-4-8","15:29:18","25","75","3","9","10","40","30","120","23","18","[""White""]","No","Female","1951233","1179","i","learn","","","learn_trial","36.6667","80","out","0","1","","","","","","","","","","","","","","","","","","","","",""
"","","","","","canvas-keyboard-response","255","343911","0.0-12.0-3.48","2d_cat_multi_stim_exp1","2022-4-8","15:29:18","25","75","3","9","10","40","30","120","23","18","[""White""]","No","Female","1951233","null","null","learn_feedback","","","learn_feedback","36.6667","80","out","","","","","","","","","","","","","","","","","","","","","","",""
"","","","","","canvas-keyboard-response","256","343974","0.0-12.0-4.48","2d_cat_multi_stim_exp1","2022-4-8","15:29:18","25","75","3","9","10","40","30","120","23","18","[""White""]","No","Female","1951233","null","null","","","","clear_screen","","","","","","","","","","","","","","","","","","","","","","","","","",""
"","","","","","canvas-keyboard-response","257","344489","0.0-12.0-0.49","2d_cat_multi_stim_exp1","2022-4-8","15:29:18","25","75","3","9","10","40","30","120","23","18","[""White""]","No","Female","1951233","null","null","","","","fixation","","","","","","","","","","","","","","","","","","","","","","","","","",""
"","","","","","canvas-keyboard-response","258","345004","0.0-12.0-1.49","2d_cat_multi_stim_exp1","2022-4-8","15:29:18","25","75","3","9","10","40","30","120","23","18","[""White""]","No","Female","1951233","null","null","","","","clear_screen","","","","","","","","","","","","","","","","","","","","","","","","","",""
"","","","","","canvas-keyboard-response","259","346400","0.0-12.0-2.49","2d_cat_multi_stim_exp1","2022-4-8","15:29:18","25","75","3","9","10","40","30","120","23","18","[""White""]","No","Female","1951233","1386","i","learn","","","learn_trial","40","70","out","0","1","","","","","","","","","","","","","","","","","","","","",""
"","","","","","canvas-keyboard-response","260","346911","0.0-12.0-3.49","2d_cat_multi_stim_exp1","2022-4-8","15:29:18","25","75","3","9","10","40","30","120","23","18","[""White""]","No","Female","1951233","null","null","learn_feedback","","","learn_feedback","40","70","out","","","","","","","","","","","","","","","","","","","","","","",""
"","","","","","canvas-keyboard-response","261","346972","0.0-12.0-4.49","2d_cat_multi_stim_exp1","2022-4-8","15:29:18","25","75","3","9","10","40","30","120","23","18","[""White""]","No","Female","1951233","null","null","","","","clear_screen","","","","","","","","","","","","","","","","","","","","","","","","","",""
"","","","","","canvas-keyboard-response","262","347483","0.0-12.0-0.50","2d_cat_multi_stim_exp1","2022-4-8","15:29:18","25","75","3","9","10","40","30","120","23","18","[""White""]","No","Female","1951233","null","null","","","","fixation","","","","","","","","","","","","","","","","","","","","","","","","","",""
"","","","","","canvas-keyboard-response","263","347994","0.0-12.0-1.50","2d_cat_multi_stim_exp1","2022-4-8","15:29:18","25","75","3","9","10","40","30","120","23","18","[""White""]","No","Female","1951233","null","null","","","","clear_screen","","","","","","","","","","","","","","","","","","","","","","","","","",""
"","","","","","canvas-keyboard-response","264","349624","0.0-12.0-2.50","2d_cat_multi_stim_exp1","2022-4-8","15:29:18","25","75","3","9","10","40","30","120","23","18","[""White""]","No","Female","1951233","1622","i","learn","","","learn_trial","26.6667","110","out","0","1","","","","","","","","","","","","","","","","","","","","",""
"","","","","","canvas-keyboard-response","265","350135","0.0-12.0-3.50","2d_cat_multi_stim_exp1","2022-4-8","15:29:18","25","75","3","9","10","40","30","120","23","18","[""White""]","No","Female","1951233","null","null","learn_feedback","","","learn_feedback","26.6667","110","out","","","","","","","","","","","","","","","","","","","","","","",""
"","","","","","canvas-keyboard-response","266","350200","0.0-12.0-4.50","2d_cat_multi_stim_exp1","2022-4-8","15:29:18","25","75","3","9","10","40","30","120","23","18","[""White""]","No","Female","1951233","null","null","","","","clear_screen","","","","","","","","","","","","","","","","","","","","","","","","","",""
"","","","","","canvas-keyboard-response","267","350711","0.0-12.0-0.51","2d_cat_multi_stim_exp1","2022-4-8","15:29:18","25","75","3","9","10","40","30","120","23","18","[""White""]","No","Female","1951233","null","null","","","","fixation","","","","","","","","","","","","","","","","","","","","","","","","","",""
"","","","","","canvas-keyboard-response","268","351221","0.0-12.0-1.51","2d_cat_multi_stim_exp1","2022-4-8","15:29:18","25","75","3","9","10","40","30","120","23","18","[""White""]","No","Female","1951233","null","null","","","","clear_screen","","","","","","","","","","","","","","","","","","","","","","","","","",""
"","","","","","canvas-keyboard-response","269","352000","0.0-12.0-2.51","2d_cat_multi_stim_exp1","2022-4-8","15:29:18","25","75","3","9","10","40","30","120","23","18","[""White""]","No","Female","1951233","769","i","learn","","","learn_trial","16.6667","30","out","0","1","","","","","","","","","","","","","","","","","","","","",""
"","","","","","canvas-keyboard-response","270","352508","0.0-12.0-3.51","2d_cat_multi_stim_exp1","2022-4-8","15:29:18","25","75","3","9","10","40","30","120","23","18","[""White""]","No","Female","1951233","null","null","learn_feedback","","","learn_feedback","16.6667","30","out","","","","","","","","","","","","","","","","","","","","","","",""
"","","","","","canvas-keyboard-response","271","352570","0.0-12.0-4.51","2d_cat_multi_stim_exp1","2022-4-8","15:29:18","25","75","3","9","10","40","30","120","23","18","[""White""]","No","Female","1951233","null","null","","","","clear_screen","","","","","","","","","","","","","","","","","","","","","","","","","",""
"","","","","","canvas-keyboard-response","272","353080","0.0-12.0-0.52","2d_cat_multi_stim_exp1","2022-4-8","15:29:18","25","75","3","9","10","40","30","120","23","18","[""White""]","No","Female","1951233","null","null","","","","fixation","","","","","","","","","","","","","","","","","","","","","","","","","",""
"","","","","","canvas-keyboard-response","273","353594","0.0-12.0-1.52","2d_cat_multi_stim_exp1","2022-4-8","15:29:18","25","75","3","9","10","40","30","120","23","18","[""White""]","No","Female","1951233","null","null","","","","clear_screen","","","","","","","","","","","","","","","","","","","","","","","","","",""
"","","","","","canvas-keyboard-response","274","354824","0.0-12.0-2.52","2d_cat_multi_stim_exp1","2022-4-8","15:29:18","25","75","3","9","10","40","30","120","23","18","[""White""]","No","Female","1951233","1223","u","learn","","","learn_trial","27.8087","78.1624","in","1","1","","","","","","","","","","","","","","","","","","","","",""
"","","","","","canvas-keyboard-response","275","355335","0.0-12.0-3.52","2d_cat_multi_stim_exp1","2022-4-8","15:29:18","25","75","3","9","10","40","30","120","23","18","[""White""]","No","Female","1951233","null","null","learn_feedback","","","learn_feedback","27.8087","78.1624","in","","","","","","","","","","","","","","","","","","","","","","",""
"","","","","","canvas-keyboard-response","276","355394","0.0-12.0-4.52","2d_cat_multi_stim_exp1","2022-4-8","15:29:18","25","75","3","9","10","40","30","120","23","18","[""White""]","No","Female","1951233","null","null","","","","clear_screen","","","","","","","","","","","","","","","","","","","","","","","","","",""
"","","","","","canvas-keyboard-response","277","355905","0.0-12.0-0.53","2d_cat_multi_stim_exp1","2022-4-8","15:29:18","25","75","3","9","10","40","30","120","23","18","[""White""]","No","Female","1951233","null","null","","","","fixation","","","","","","","","","","","","","","","","","","","","","","","","","",""
"","","","","","canvas-keyboard-response","278","356415","0.0-12.0-1.53","2d_cat_multi_stim_exp1","2022-4-8","15:29:18","25","75","3","9","10","40","30","120","23","18","[""White""]","No","Female","1951233","null","null","","","","clear_screen","","","","","","","","","","","","","","","","","","","","","","","","","",""
"","","","","","canvas-keyboard-response","279","357337","0.0-12.0-2.53","2d_cat_multi_stim_exp1","2022-4-8","15:29:18","25","75","3","9","10","40","30","120","23","18","[""White""]","No","Female","1951233","911","i","learn","","","learn_trial","40","90","out","0","1","","","","","","","","","","","","","","","","","","","","",""
"","","","","","canvas-keyboard-response","280","357846","0.0-12.0-3.53","2d_cat_multi_stim_exp1","2022-4-8","15:29:18","25","75","3","9","10","40","30","120","23","18","[""White""]","No","Female","1951233","null","null","learn_feedback","","","learn_feedback","40","90","out","","","","","","","","","","","","","","","","","","","","","","",""
"","","","","","canvas-keyboard-response","281","357908","0.0-12.0-4.53","2d_cat_multi_stim_exp1","2022-4-8","15:29:18","25","75","3","9","10","40","30","120","23","18","[""White""]","No","Female","1951233","null","null","","","","clear_screen","","","","","","","","","","","","","","","","","","","","","","","","","",""
"","","","","","canvas-keyboard-response","282","358417","0.0-12.0-0.54","2d_cat_multi_stim_exp1","2022-4-8","15:29:18","25","75","3","9","10","40","30","120","23","18","[""White""]","No","Female","1951233","null","null","","","","fixation","","","","","","","","","","","","","","","","","","","","","","","","","",""
"","","","","","canvas-keyboard-response","283","358926","0.0-12.0-1.54","2d_cat_multi_stim_exp1","2022-4-8","15:29:18","25","75","3","9","10","40","30","120","23","18","[""White""]","No","Female","1951233","null","null","","","","clear_screen","","","","","","","","","","","","","","","","","","","","","","","","","",""
"","","","","","canvas-keyboard-response","284","360503","0.0-12.0-2.54","2d_cat_multi_stim_exp1","2022-4-8","15:29:18","25","75","3","9","10","40","30","120","23","18","[""White""]","No","Female","1951233","1569","u","learn","","","learn_trial","23.3333","80","out","1","0","","","","","","","","","","","","","","","","","","","","",""
"","","","","","canvas-keyboard-response","285","361515","0.0-12.0-3.54","2d_cat_multi_stim_exp1","2022-4-8","15:29:18","25","75","3","9","10","40","30","120","23","18","[""White""]","No","Female","1951233","null","null","learn_feedback","","","learn_feedback","23.3333","80","out","","","","","","","","","","","","","","","","","","","","","","",""
"","","","","","canvas-keyboard-response","286","361576","0.0-12.0-4.54","2d_cat_multi_stim_exp1","2022-4-8","15:29:18","25","75","3","9","10","40","30","120","23","18","[""White""]","No","Female","1951233","null","null","","","","clear_screen","","","","","","","","","","","","","","","","","","","","","","","","","",""
"","","","","","canvas-keyboard-response","287","362085","0.0-12.0-0.55","2d_cat_multi_stim_exp1","2022-4-8","15:29:18","25","75","3","9","10","40","30","120","23","18","[""White""]","No","Female","1951233","null","null","","","","fixation","","","","","","","","","","","","","","","","","","","","","","","","","",""
"","","","","","canvas-keyboard-response","288","362599","0.0-12.0-1.55","2d_cat_multi_stim_exp1","2022-4-8","15:29:18","25","75","3","9","10","40","30","120","23","18","[""White""]","No","Female","1951233","null","null","","","","clear_screen","","","","","","","","","","","","","","","","","","","","","","","","","",""
"","","","","","canvas-keyboard-response","289","363432","0.0-12.0-2.55","2d_cat_multi_stim_exp1","2022-4-8","15:29:18","25","75","3","9","10","40","30","120","23","18","[""White""]","No","Female","1951233","821","i","learn","","","learn_trial","10","30","out","0","1","","","","","","","","","","","","","","","","","","","","",""
"","","","","","canvas-keyboard-response","290","363941","0.0-12.0-3.55","2d_cat_multi_stim_exp1","2022-4-8","15:29:18","25","75","3","9","10","40","30","120","23","18","[""White""]","No","Female","1951233","null","null","learn_feedback","","","learn_feedback","10","30","out","","","","","","","","","","","","","","","","","","","","","","",""
"","","","","","canvas-keyboard-response","291","364000","0.0-12.0-4.55","2d_cat_multi_stim_exp1","2022-4-8","15:29:18","25","75","3","9","10","40","30","120","23","18","[""White""]","No","Female","1951233","null","null","","","","clear_screen","","","","","","","","","","","","","","","","","","","","","","","","","",""
"","","","","","canvas-keyboard-response","292","364510","0.0-12.0-0.56","2d_cat_multi_stim_exp1","2022-4-8","15:29:18","25","75","3","9","10","40","30","120","23","18","[""White""]","No","Female","1951233","null","null","","","","fixation","","","","","","","","","","","","","","","","","","","","","","","","","",""
"","","","","","canvas-keyboard-response","293","365021","0.0-12.0-1.56","2d_cat_multi_stim_exp1","2022-4-8","15:29:18","25","75","3","9","10","40","30","120","23","18","[""White""]","No","Female","1951233","null","null","","","","clear_screen","","","","","","","","","","","","","","","","","","","","","","","","","",""
"","","","","","canvas-keyboard-response","294","366048","0.0-12.0-2.56","2d_cat_multi_stim_exp1","2022-4-8","15:29:18","25","75","3","9","10","40","30","120","23","18","[""White""]","No","Female","1951233","1018","u","learn","","","learn_trial","25","75","in","1","1","","","","","","","","","","","","","","","","","","","","",""
"","","","","","canvas-keyboard-response","295","366557","0.0-12.0-3.56","2d_cat_multi_stim_exp1","2022-4-8","15:29:18","25","75","3","9","10","40","30","120","23","18","[""White""]","No","Female","1951233","null","null","learn_feedback","","","learn_feedback","25","75","in","","","","","","","","","","","","","","","","","","","","","","",""
"","","","","","canvas-keyboard-response","296","366620","0.0-12.0-4.56","2d_cat_multi_stim_exp1","2022-4-8","15:29:18","25","75","3","9","10","40","30","120","23","18","[""White""]","No","Female","1951233","null","null","","","","clear_screen","","","","","","","","","","","","","","","","","","","","","","","","","",""
"","","","","","canvas-keyboard-response","297","367127","0.0-12.0-0.57","2d_cat_multi_stim_exp1","2022-4-8","15:29:18","25","75","3","9","10","40","30","120","23","18","[""White""]","No","Female","1951233","null","null","","","","fixation","","","","","","","","","","","","","","","","","","","","","","","","","",""
