"success","timeout","failed_images","failed_audio","failed_video","trial_type","trial_index","time_elapsed","internal_node_id","exp_name","date","time","angle_mean_in","radius_mean_in","angle_sd_in","radius_sd_in","angle_min_out","angle_max_out","radius_min_out","radius_max_out","sub_n","age","race","ethnicity","gender","exp_duration","rt","response","exp_trial_type","stimulus","view_history","screen_id","angle","radius","distribution","choice","correct","order","angle_a","radius_a","angle_b","radius_b","jkl_correct","transfer_trial_type","choice_set","abc_correct","tc_correct","tc_angle","tdc_a","tdc_b","tdc_c","pair","category_a","category_b","category_c","angle_c","radius_c","question_order"
"true","false","[]","[]","[]","preload","0","28","0.0-0.0","2d_cat_multi_stim_exp1","2022-4-5","16:11:5","25","75","3","9","10","40","30","120","15","20","[""Prefer not to say""]","Yes","Female","2267589","","","","","","","","","","","","","","","","","","","","","","","","","","","","","","","",""
"","","","","","survey-html-form","1","14631","0.0-1.0","2d_cat_multi_stim_exp1","2022-4-5","16:11:5","25","75","3","9","10","40","30","120","15","20","[""Prefer not to say""]","Yes","Female","2267589","14584","{""response"":""15""}","enter-sub-number","","","","","","","","","","","","","","","","","","","","","","","","","","","","",""
"true","","","","","fullscreen","2","17479","0.0-2.0","2d_cat_multi_stim_exp1","2022-4-5","16:11:5","25","75","3","9","10","40","30","120","15","20","[""Prefer not to say""]","Yes","Female","2267589","","","","","","","","","","","","","","","","","","","","","","","","","","","","","","","",""
"","","","","","image-button-response","3","109885","0.0-3.0","2d_cat_multi_stim_exp1","2022-4-5","16:11:5","25","75","3","9","10","40","30","120","15","20","[""Prefer not to say""]","Yes","Female","2267589","92400","0","","consent.png","","","","","","","","","","","","","","","","","","","","","","","","","","","",""
"","","","","","html-button-response","4","118125","0.0-4.0","2d_cat_multi_stim_exp1","2022-4-5","16:11:5","25","75","3","9","10","40","30","120","15","20","[""Prefer not to say""]","Yes","Female","2267589","8236","0","","<div style= ""font-size:25px;"" <p> <strong> Welcome to the experiment! </strong><br> <p style=""color:#8B0000; font-size:25px;""><strong> Please do NOT exit full screen until you are done with the experiment. </strong> </p><p style=""font-size:25px;color:#8B0000;""> <strong> The experiment will be canceled and your data will be lost <br> if you try to go back or refresh the page at any point during the experiment.</strong> </p><br><p> <strong> Thanks in advance for your contribution to our research! </strong></p>","","","","","","","","","","","","","","","","","","","","","","","","","","","",""
"","","","","","instructions","5","190045","0.0-5.0","2d_cat_multi_stim_exp1","2022-4-5","16:11:5","25","75","3","9","10","40","30","120","15","20","[""Prefer not to say""]","Yes","Female","2267589","71915","","","","[{""page_index"":0,""viewing_time"":8708},{""page_index"":1,""viewing_time"":3023},{""page_index"":2,""viewing_time"":23424},{""page_index"":3,""viewing_time"":36760}]","instructions_1","","","","","","","","","","","","","","","","","","","","","","","","","",""
"","","","","","instructions","6","193740","0.0-6.0","2d_cat_multi_stim_exp1","2022-4-5","16:11:5","25","75","3","9","10","40","30","120","15","20","[""Prefer not to say""]","Yes","Female","2267589","3693","","","","[{""page_index"":0,""viewing_time"":3693}]","Click to see the kinds of turtles that will appear in the study.","","","","","","","","","","","","","","","","","","","","","","","","","",""
"","","","","","canvas-keyboard-response","7","208761","0.0-7.0","2d_cat_multi_stim_exp1","2022-4-5","16:11:5","25","75","3","9","10","40","30","120","15","20","[""Prefer not to say""]","Yes","Female","2267589","null","null","","","","demo_range","","","","","","","","","","","","","","","","","","","","","","","","","",""
"","","","","","instructions","8","212532","0.0-8.0","2d_cat_multi_stim_exp1","2022-4-5","16:11:5","25","75","3","9","10","40","30","120","15","20","[""Prefer not to say""]","Yes","Female","2267589","3269","","","","[{""page_index"":0,""viewing_time"":3269}]","Click to see some turtles in the subspecies.","","","","","","","","","","","","","","","","","","","","","","","","","",""
"","","","","","canvas-keyboard-response","9","227550","0.0-9.0","2d_cat_multi_stim_exp1","2022-4-5","16:11:5","25","75","3","9","10","40","30","120","15","20","[""Prefer not to say""]","Yes","Female","2267589","null","null","","","","demo_in","","","","","","","","","","","","","","","","","","","","","","","","","",""
"","","","","","instructions","10","271283","0.0-10.0","2d_cat_multi_stim_exp1","2022-4-5","16:11:5","25","75","3","9","10","40","30","120","15","20","[""Prefer not to say""]","Yes","Female","2267589","43233","","","","[{""page_index"":0,""viewing_time"":11385},{""page_index"":1,""viewing_time"":22999},{""page_index"":2,""viewing_time"":8849}]","instructions_2","","","","","","","","","","","","","","","","","","","","","","","","","",""
"","","","","","instructions","11","274365","0.0-11.0","2d_cat_multi_stim_exp1","2022-4-5","16:11:5","25","75","3","9","10","40","30","120","15","20","[""Prefer not to say""]","Yes","Female","2267589","3078","","","","[{""page_index"":0,""viewing_time"":3078}]","Click to begin the first phase of the experiment.","","","","","","","","","","","","","","","","","","","","","","","","","",""
"","","","","","canvas-keyboard-response","12","274874","0.0-12.0-0.0","2d_cat_multi_stim_exp1","2022-4-5","16:11:5","25","75","3","9","10","40","30","120","15","20","[""Prefer not to say""]","Yes","Female","2267589","null","null","","","","fixation","","","","","","","","","","","","","","","","","","","","","","","","","",""
"","","","","","canvas-keyboard-response","13","275383","0.0-12.0-1.0","2d_cat_multi_stim_exp1","2022-4-5","16:11:5","25","75","3","9","10","40","30","120","15","20","[""Prefer not to say""]","Yes","Female","2267589","null","null","","","","clear_screen","","","","","","","","","","","","","","","","","","","","","","","","","",""
"","","","","","canvas-keyboard-response","14","278261","0.0-12.0-2.0","2d_cat_multi_stim_exp1","2022-4-5","16:11:5","25","75","3","9","10","40","30","120","15","20","[""Prefer not to say""]","Yes","Female","2267589","2868","u","learn","","","learn_trial","30","80","out","1","0","","","","","","","","","","","","","","","","","","","","",""
"","","","","","canvas-keyboard-response","15","279274","0.0-12.0-3.0","2d_cat_multi_stim_exp1","2022-4-5","16:11:5","25","75","3","9","10","40","30","120","15","20","[""Prefer not to say""]","Yes","Female","2267589","null","null","learn_feedback","","","learn_feedback","30","80","out","","","","","","","","","","","","","","","","","","","","","","",""
"","","","","","canvas-keyboard-response","16","279334","0.0-12.0-4.0","2d_cat_multi_stim_exp1","2022-4-5","16:11:5","25","75","3","9","10","40","30","120","15","20","[""Prefer not to say""]","Yes","Female","2267589","null","null","","","","clear_screen","","","","","","","","","","","","","","","","","","","","","","","","","",""
"","","","","","canvas-keyboard-response","17","279844","0.0-12.0-0.1","2d_cat_multi_stim_exp1","2022-4-5","16:11:5","25","75","3","9","10","40","30","120","15","20","[""Prefer not to say""]","Yes","Female","2267589","null","null","","","","fixation","","","","","","","","","","","","","","","","","","","","","","","","","",""
"","","","","","canvas-keyboard-response","18","280353","0.0-12.0-1.1","2d_cat_multi_stim_exp1","2022-4-5","16:11:5","25","75","3","9","10","40","30","120","15","20","[""Prefer not to say""]","Yes","Female","2267589","null","null","","","","clear_screen","","","","","","","","","","","","","","","","","","","","","","","","","",""
"","","","","","canvas-keyboard-response","19","282916","0.0-12.0-2.1","2d_cat_multi_stim_exp1","2022-4-5","16:11:5","25","75","3","9","10","40","30","120","15","20","[""Prefer not to say""]","Yes","Female","2267589","2554","u","learn","","","learn_trial","33.3333","100","out","1","0","","","","","","","","","","","","","","","","","","","","",""
"","","","","","canvas-keyboard-response","20","283927","0.0-12.0-3.1","2d_cat_multi_stim_exp1","2022-4-5","16:11:5","25","75","3","9","10","40","30","120","15","20","[""Prefer not to say""]","Yes","Female","2267589","null","null","learn_feedback","","","learn_feedback","33.3333","100","out","","","","","","","","","","","","","","","","","","","","","","",""
"","","","","","canvas-keyboard-response","21","283986","0.0-12.0-4.1","2d_cat_multi_stim_exp1","2022-4-5","16:11:5","25","75","3","9","10","40","30","120","15","20","[""Prefer not to say""]","Yes","Female","2267589","null","null","","","","clear_screen","","","","","","","","","","","","","","","","","","","","","","","","","",""
"","","","","","canvas-keyboard-response","22","284494","0.0-12.0-0.2","2d_cat_multi_stim_exp1","2022-4-5","16:11:5","25","75","3","9","10","40","30","120","15","20","[""Prefer not to say""]","Yes","Female","2267589","null","null","","","","fixation","","","","","","","","","","","","","","","","","","","","","","","","","",""
"","","","","","canvas-keyboard-response","23","285003","0.0-12.0-1.2","2d_cat_multi_stim_exp1","2022-4-5","16:11:5","25","75","3","9","10","40","30","120","15","20","[""Prefer not to say""]","Yes","Female","2267589","null","null","","","","clear_screen","","","","","","","","","","","","","","","","","","","","","","","","","",""
"","","","","","canvas-keyboard-response","24","286821","0.0-12.0-2.2","2d_cat_multi_stim_exp1","2022-4-5","16:11:5","25","75","3","9","10","40","30","120","15","20","[""Prefer not to say""]","Yes","Female","2267589","1807","u","learn","","","learn_trial","20","60","out","1","0","","","","","","","","","","","","","","","","","","","","",""
"","","","","","canvas-keyboard-response","25","287829","0.0-12.0-3.2","2d_cat_multi_stim_exp1","2022-4-5","16:11:5","25","75","3","9","10","40","30","120","15","20","[""Prefer not to say""]","Yes","Female","2267589","null","null","learn_feedback","","","learn_feedback","20","60","out","","","","","","","","","","","","","","","","","","","","","","",""
"","","","","","canvas-keyboard-response","26","287887","0.0-12.0-4.2","2d_cat_multi_stim_exp1","2022-4-5","16:11:5","25","75","3","9","10","40","30","120","15","20","[""Prefer not to say""]","Yes","Female","2267589","null","null","","","","clear_screen","","","","","","","","","","","","","","","","","","","","","","","","","",""
"","","","","","canvas-keyboard-response","27","288396","0.0-12.0-0.3","2d_cat_multi_stim_exp1","2022-4-5","16:11:5","25","75","3","9","10","40","30","120","15","20","[""Prefer not to say""]","Yes","Female","2267589","null","null","","","","fixation","","","","","","","","","","","","","","","","","","","","","","","","","",""
"","","","","","canvas-keyboard-response","28","288905","0.0-12.0-1.3","2d_cat_multi_stim_exp1","2022-4-5","16:11:5","25","75","3","9","10","40","30","120","15","20","[""Prefer not to say""]","Yes","Female","2267589","null","null","","","","clear_screen","","","","","","","","","","","","","","","","","","","","","","","","","",""
"","","","","","canvas-keyboard-response","29","292772","0.0-12.0-2.3","2d_cat_multi_stim_exp1","2022-4-5","16:11:5","25","75","3","9","10","40","30","120","15","20","[""Prefer not to say""]","Yes","Female","2267589","3859","u","learn","","","learn_trial","30","120","out","1","0","","","","","","","","","","","","","","","","","","","","",""
"","","","","","canvas-keyboard-response","30","293788","0.0-12.0-3.3","2d_cat_multi_stim_exp1","2022-4-5","16:11:5","25","75","3","9","10","40","30","120","15","20","[""Prefer not to say""]","Yes","Female","2267589","null","null","learn_feedback","","","learn_feedback","30","120","out","","","","","","","","","","","","","","","","","","","","","","",""
"","","","","","canvas-keyboard-response","31","293846","0.0-12.0-4.3","2d_cat_multi_stim_exp1","2022-4-5","16:11:5","25","75","3","9","10","40","30","120","15","20","[""Prefer not to say""]","Yes","Female","2267589","null","null","","","","clear_screen","","","","","","","","","","","","","","","","","","","","","","","","","",""
"","","","","","canvas-keyboard-response","32","294354","0.0-12.0-0.4","2d_cat_multi_stim_exp1","2022-4-5","16:11:5","25","75","3","9","10","40","30","120","15","20","[""Prefer not to say""]","Yes","Female","2267589","null","null","","","","fixation","","","","","","","","","","","","","","","","","","","","","","","","","",""
"","","","","","canvas-keyboard-response","33","294864","0.0-12.0-1.4","2d_cat_multi_stim_exp1","2022-4-5","16:11:5","25","75","3","9","10","40","30","120","15","20","[""Prefer not to say""]","Yes","Female","2267589","null","null","","","","clear_screen","","","","","","","","","","","","","","","","","","","","","","","","","",""
"","","","","","canvas-keyboard-response","34","298276","0.0-12.0-2.4","2d_cat_multi_stim_exp1","2022-4-5","16:11:5","25","75","3","9","10","40","30","120","15","20","[""Prefer not to say""]","Yes","Female","2267589","3403","u","learn","","","learn_trial","10","70","out","1","0","","","","","","","","","","","","","","","","","","","","",""
"","","","","","canvas-keyboard-response","35","299285","0.0-12.0-3.4","2d_cat_multi_stim_exp1","2022-4-5","16:11:5","25","75","3","9","10","40","30","120","15","20","[""Prefer not to say""]","Yes","Female","2267589","null","null","learn_feedback","","","learn_feedback","10","70","out","","","","","","","","","","","","","","","","","","","","","","",""
"","","","","","canvas-keyboard-response","36","299343","0.0-12.0-4.4","2d_cat_multi_stim_exp1","2022-4-5","16:11:5","25","75","3","9","10","40","30","120","15","20","[""Prefer not to say""]","Yes","Female","2267589","null","null","","","","clear_screen","","","","","","","","","","","","","","","","","","","","","","","","","",""
"","","","","","canvas-keyboard-response","37","299851","0.0-12.0-0.5","2d_cat_multi_stim_exp1","2022-4-5","16:11:5","25","75","3","9","10","40","30","120","15","20","[""Prefer not to say""]","Yes","Female","2267589","null","null","","","","fixation","","","","","","","","","","","","","","","","","","","","","","","","","",""
"","","","","","canvas-keyboard-response","38","300360","0.0-12.0-1.5","2d_cat_multi_stim_exp1","2022-4-5","16:11:5","25","75","3","9","10","40","30","120","15","20","[""Prefer not to say""]","Yes","Female","2267589","null","null","","","","clear_screen","","","","","","","","","","","","","","","","","","","","","","","","","",""
"","","","","","canvas-keyboard-response","39","301956","0.0-12.0-2.5","2d_cat_multi_stim_exp1","2022-4-5","16:11:5","25","75","3","9","10","40","30","120","15","20","[""Prefer not to say""]","Yes","Female","2267589","1587","u","learn","","","learn_trial","25","75","in","1","1","","","","","","","","","","","","","","","","","","","","",""
"","","","","","canvas-keyboard-response","40","302466","0.0-12.0-3.5","2d_cat_multi_stim_exp1","2022-4-5","16:11:5","25","75","3","9","10","40","30","120","15","20","[""Prefer not to say""]","Yes","Female","2267589","null","null","learn_feedback","","","learn_feedback","25","75","in","","","","","","","","","","","","","","","","","","","","","","",""
"","","","","","canvas-keyboard-response","41","302523","0.0-12.0-4.5","2d_cat_multi_stim_exp1","2022-4-5","16:11:5","25","75","3","9","10","40","30","120","15","20","[""Prefer not to say""]","Yes","Female","2267589","null","null","","","","clear_screen","","","","","","","","","","","","","","","","","","","","","","","","","",""
"","","","","","canvas-keyboard-response","42","303031","0.0-12.0-0.6","2d_cat_multi_stim_exp1","2022-4-5","16:11:5","25","75","3","9","10","40","30","120","15","20","[""Prefer not to say""]","Yes","Female","2267589","null","null","","","","fixation","","","","","","","","","","","","","","","","","","","","","","","","","",""
"","","","","","canvas-keyboard-response","43","303540","0.0-12.0-1.6","2d_cat_multi_stim_exp1","2022-4-5","16:11:5","25","75","3","9","10","40","30","120","15","20","[""Prefer not to say""]","Yes","Female","2267589","null","null","","","","clear_screen","","","","","","","","","","","","","","","","","","","","","","","","","",""
"","","","","","canvas-keyboard-response","44","308227","0.0-12.0-2.6","2d_cat_multi_stim_exp1","2022-4-5","16:11:5","25","75","3","9","10","40","30","120","15","20","[""Prefer not to say""]","Yes","Female","2267589","4679","u","learn","","","learn_trial","22.0121","75.8068","in","1","1","","","","","","","","","","","","","","","","","","","","",""
"","","","","","canvas-keyboard-response","45","308740","0.0-12.0-3.6","2d_cat_multi_stim_exp1","2022-4-5","16:11:5","25","75","3","9","10","40","30","120","15","20","[""Prefer not to say""]","Yes","Female","2267589","null","null","learn_feedback","","","learn_feedback","22.0121","75.8068","in","","","","","","","","","","","","","","","","","","","","","","",""
"","","","","","canvas-keyboard-response","46","308798","0.0-12.0-4.6","2d_cat_multi_stim_exp1","2022-4-5","16:11:5","25","75","3","9","10","40","30","120","15","20","[""Prefer not to say""]","Yes","Female","2267589","null","null","","","","clear_screen","","","","","","","","","","","","","","","","","","","","","","","","","",""
"","","","","","canvas-keyboard-response","47","309306","0.0-12.0-0.7","2d_cat_multi_stim_exp1","2022-4-5","16:11:5","25","75","3","9","10","40","30","120","15","20","[""Prefer not to say""]","Yes","Female","2267589","null","null","","","","fixation","","","","","","","","","","","","","","","","","","","","","","","","","",""
"","","","","","canvas-keyboard-response","48","309815","0.0-12.0-1.7","2d_cat_multi_stim_exp1","2022-4-5","16:11:5","25","75","3","9","10","40","30","120","15","20","[""Prefer not to say""]","Yes","Female","2267589","null","null","","","","clear_screen","","","","","","","","","","","","","","","","","","","","","","","","","",""
"","","","","","canvas-keyboard-response","49","312004","0.0-12.0-2.7","2d_cat_multi_stim_exp1","2022-4-5","16:11:5","25","75","3","9","10","40","30","120","15","20","[""Prefer not to say""]","Yes","Female","2267589","2180","i","learn","","","learn_trial","10","50","out","0","1","","","","","","","","","","","","","","","","","","","","",""
"","","","","","canvas-keyboard-response","50","312513","0.0-12.0-3.7","2d_cat_multi_stim_exp1","2022-4-5","16:11:5","25","75","3","9","10","40","30","120","15","20","[""Prefer not to say""]","Yes","Female","2267589","null","null","learn_feedback","","","learn_feedback","10","50","out","","","","","","","","","","","","","","","","","","","","","","",""
"","","","","","canvas-keyboard-response","51","312572","0.0-12.0-4.7","2d_cat_multi_stim_exp1","2022-4-5","16:11:5","25","75","3","9","10","40","30","120","15","20","[""Prefer not to say""]","Yes","Female","2267589","null","null","","","","clear_screen","","","","","","","","","","","","","","","","","","","","","","","","","",""
"","","","","","canvas-keyboard-response","52","313079","0.0-12.0-0.8","2d_cat_multi_stim_exp1","2022-4-5","16:11:5","25","75","3","9","10","40","30","120","15","20","[""Prefer not to say""]","Yes","Female","2267589","null","null","","","","fixation","","","","","","","","","","","","","","","","","","","","","","","","","",""
"","","","","","canvas-keyboard-response","53","313588","0.0-12.0-1.8","2d_cat_multi_stim_exp1","2022-4-5","16:11:5","25","75","3","9","10","40","30","120","15","20","[""Prefer not to say""]","Yes","Female","2267589","null","null","","","","clear_screen","","","","","","","","","","","","","","","","","","","","","","","","","",""
"","","","","","canvas-keyboard-response","54","315996","0.0-12.0-2.8","2d_cat_multi_stim_exp1","2022-4-5","16:11:5","25","75","3","9","10","40","30","120","15","20","[""Prefer not to say""]","Yes","Female","2267589","2399","u","learn","","","learn_trial","25","75","in","1","1","","","","","","","","","","","","","","","","","","","","",""
"","","","","","canvas-keyboard-response","55","316504","0.0-12.0-3.8","2d_cat_multi_stim_exp1","2022-4-5","16:11:5","25","75","3","9","10","40","30","120","15","20","[""Prefer not to say""]","Yes","Female","2267589","null","null","learn_feedback","","","learn_feedback","25","75","in","","","","","","","","","","","","","","","","","","","","","","",""
"","","","","","canvas-keyboard-response","56","316562","0.0-12.0-4.8","2d_cat_multi_stim_exp1","2022-4-5","16:11:5","25","75","3","9","10","40","30","120","15","20","[""Prefer not to say""]","Yes","Female","2267589","null","null","","","","clear_screen","","","","","","","","","","","","","","","","","","","","","","","","","",""
"","","","","","canvas-keyboard-response","57","317070","0.0-12.0-0.9","2d_cat_multi_stim_exp1","2022-4-5","16:11:5","25","75","3","9","10","40","30","120","15","20","[""Prefer not to say""]","Yes","Female","2267589","null","null","","","","fixation","","","","","","","","","","","","","","","","","","","","","","","","","",""
"","","","","","canvas-keyboard-response","58","317579","0.0-12.0-1.9","2d_cat_multi_stim_exp1","2022-4-5","16:11:5","25","75","3","9","10","40","30","120","15","20","[""Prefer not to say""]","Yes","Female","2267589","null","null","","","","clear_screen","","","","","","","","","","","","","","","","","","","","","","","","","",""
"","","","","","canvas-keyboard-response","59","320059","0.0-12.0-2.9","2d_cat_multi_stim_exp1","2022-4-5","16:11:5","25","75","3","9","10","40","30","120","15","20","[""Prefer not to say""]","Yes","Female","2267589","2474","u","learn","","","learn_trial","25","75","in","1","1","","","","","","","","","","","","","","","","","","","","",""
"","","","","","canvas-keyboard-response","60","320572","0.0-12.0-3.9","2d_cat_multi_stim_exp1","2022-4-5","16:11:5","25","75","3","9","10","40","30","120","15","20","[""Prefer not to say""]","Yes","Female","2267589","null","null","learn_feedback","","","learn_feedback","25","75","in","","","","","","","","","","","","","","","","","","","","","","",""
"","","","","","canvas-keyboard-response","61","320630","0.0-12.0-4.9","2d_cat_multi_stim_exp1","2022-4-5","16:11:5","25","75","3","9","10","40","30","120","15","20","[""Prefer not to say""]","Yes","Female","2267589","null","null","","","","clear_screen","","","","","","","","","","","","","","","","","","","","","","","","","",""
"","","","","","canvas-keyboard-response","62","321138","0.0-12.0-0.10","2d_cat_multi_stim_exp1","2022-4-5","16:11:5","25","75","3","9","10","40","30","120","15","20","[""Prefer not to say""]","Yes","Female","2267589","null","null","","","","fixation","","","","","","","","","","","","","","","","","","","","","","","","","",""
"","","","","","canvas-keyboard-response","63","321646","0.0-12.0-1.10","2d_cat_multi_stim_exp1","2022-4-5","16:11:5","25","75","3","9","10","40","30","120","15","20","[""Prefer not to say""]","Yes","Female","2267589","null","null","","","","clear_screen","","","","","","","","","","","","","","","","","","","","","","","","","",""
"","","","","","canvas-keyboard-response","64","323548","0.0-12.0-2.10","2d_cat_multi_stim_exp1","2022-4-5","16:11:5","25","75","3","9","10","40","30","120","15","20","[""Prefer not to say""]","Yes","Female","2267589","1893","i","learn","","","learn_trial","23.3333","70","out","0","1","","","","","","","","","","","","","","","","","","","","",""
"","","","","","canvas-keyboard-response","65","324057","0.0-12.0-3.10","2d_cat_multi_stim_exp1","2022-4-5","16:11:5","25","75","3","9","10","40","30","120","15","20","[""Prefer not to say""]","Yes","Female","2267589","null","null","learn_feedback","","","learn_feedback","23.3333","70","out","","","","","","","","","","","","","","","","","","","","","","",""
"","","","","","canvas-keyboard-response","66","324115","0.0-12.0-4.10","2d_cat_multi_stim_exp1","2022-4-5","16:11:5","25","75","3","9","10","40","30","120","15","20","[""Prefer not to say""]","Yes","Female","2267589","null","null","","","","clear_screen","","","","","","","","","","","","","","","","","","","","","","","","","",""
"","","","","","canvas-keyboard-response","67","324623","0.0-12.0-0.11","2d_cat_multi_stim_exp1","2022-4-5","16:11:5","25","75","3","9","10","40","30","120","15","20","[""Prefer not to say""]","Yes","Female","2267589","null","null","","","","fixation","","","","","","","","","","","","","","","","","","","","","","","","","",""
"","","","","","canvas-keyboard-response","68","325131","0.0-12.0-1.11","2d_cat_multi_stim_exp1","2022-4-5","16:11:5","25","75","3","9","10","40","30","120","15","20","[""Prefer not to say""]","Yes","Female","2267589","null","null","","","","clear_screen","","","","","","","","","","","","","","","","","","","","","","","","","",""
"","","","","","canvas-keyboard-response","69","326891","0.0-12.0-2.11","2d_cat_multi_stim_exp1","2022-4-5","16:11:5","25","75","3","9","10","40","30","120","15","20","[""Prefer not to say""]","Yes","Female","2267589","1752","i","learn","","","learn_trial","13.3333","120","out","0","1","","","","","","","","","","","","","","","","","","","","",""
"","","","","","canvas-keyboard-response","70","327400","0.0-12.0-3.11","2d_cat_multi_stim_exp1","2022-4-5","16:11:5","25","75","3","9","10","40","30","120","15","20","[""Prefer not to say""]","Yes","Female","2267589","null","null","learn_feedback","","","learn_feedback","13.3333","120","out","","","","","","","","","","","","","","","","","","","","","","",""
"","","","","","canvas-keyboard-response","71","327458","0.0-12.0-4.11","2d_cat_multi_stim_exp1","2022-4-5","16:11:5","25","75","3","9","10","40","30","120","15","20","[""Prefer not to say""]","Yes","Female","2267589","null","null","","","","clear_screen","","","","","","","","","","","","","","","","","","","","","","","","","",""
"","","","","","canvas-keyboard-response","72","327966","0.0-12.0-0.12","2d_cat_multi_stim_exp1","2022-4-5","16:11:5","25","75","3","9","10","40","30","120","15","20","[""Prefer not to say""]","Yes","Female","2267589","null","null","","","","fixation","","","","","","","","","","","","","","","","","","","","","","","","","",""
"","","","","","canvas-keyboard-response","73","328475","0.0-12.0-1.12","2d_cat_multi_stim_exp1","2022-4-5","16:11:5","25","75","3","9","10","40","30","120","15","20","[""Prefer not to say""]","Yes","Female","2267589","null","null","","","","clear_screen","","","","","","","","","","","","","","","","","","","","","","","","","",""
"","","","","","canvas-keyboard-response","74","330251","0.0-12.0-2.12","2d_cat_multi_stim_exp1","2022-4-5","16:11:5","25","75","3","9","10","40","30","120","15","20","[""Prefer not to say""]","Yes","Female","2267589","1769","i","learn","","","learn_trial","16.6667","40","out","0","1","","","","","","","","","","","","","","","","","","","","",""
"","","","","","canvas-keyboard-response","75","330761","0.0-12.0-3.12","2d_cat_multi_stim_exp1","2022-4-5","16:11:5","25","75","3","9","10","40","30","120","15","20","[""Prefer not to say""]","Yes","Female","2267589","null","null","learn_feedback","","","learn_feedback","16.6667","40","out","","","","","","","","","","","","","","","","","","","","","","",""
"","","","","","canvas-keyboard-response","76","330821","0.0-12.0-4.12","2d_cat_multi_stim_exp1","2022-4-5","16:11:5","25","75","3","9","10","40","30","120","15","20","[""Prefer not to say""]","Yes","Female","2267589","null","null","","","","clear_screen","","","","","","","","","","","","","","","","","","","","","","","","","",""
"","","","","","canvas-keyboard-response","77","331333","0.0-12.0-0.13","2d_cat_multi_stim_exp1","2022-4-5","16:11:5","25","75","3","9","10","40","30","120","15","20","[""Prefer not to say""]","Yes","Female","2267589","null","null","","","","fixation","","","","","","","","","","","","","","","","","","","","","","","","","",""
"","","","","","canvas-keyboard-response","78","331841","0.0-12.0-1.13","2d_cat_multi_stim_exp1","2022-4-5","16:11:5","25","75","3","9","10","40","30","120","15","20","[""Prefer not to say""]","Yes","Female","2267589","null","null","","","","clear_screen","","","","","","","","","","","","","","","","","","","","","","","","","",""
"","","","","","canvas-keyboard-response","79","336261","0.0-12.0-2.13","2d_cat_multi_stim_exp1","2022-4-5","16:11:5","25","75","3","9","10","40","30","120","15","20","[""Prefer not to say""]","Yes","Female","2267589","4409","u","learn","","","learn_trial","27.9518","76.607","in","1","1","","","","","","","","","","","","","","","","","","","","",""
"","","","","","canvas-keyboard-response","80","336771","0.0-12.0-3.13","2d_cat_multi_stim_exp1","2022-4-5","16:11:5","25","75","3","9","10","40","30","120","15","20","[""Prefer not to say""]","Yes","Female","2267589","null","null","learn_feedback","","","learn_feedback","27.9518","76.607","in","","","","","","","","","","","","","","","","","","","","","","",""
"","","","","","canvas-keyboard-response","81","336829","0.0-12.0-4.13","2d_cat_multi_stim_exp1","2022-4-5","16:11:5","25","75","3","9","10","40","30","120","15","20","[""Prefer not to say""]","Yes","Female","2267589","null","null","","","","clear_screen","","","","","","","","","","","","","","","","","","","","","","","","","",""
"","","","","","canvas-keyboard-response","82","337339","0.0-12.0-0.14","2d_cat_multi_stim_exp1","2022-4-5","16:11:5","25","75","3","9","10","40","30","120","15","20","[""Prefer not to say""]","Yes","Female","2267589","null","null","","","","fixation","","","","","","","","","","","","","","","","","","","","","","","","","",""
"","","","","","canvas-keyboard-response","83","337848","0.0-12.0-1.14","2d_cat_multi_stim_exp1","2022-4-5","16:11:5","25","75","3","9","10","40","30","120","15","20","[""Prefer not to say""]","Yes","Female","2267589","null","null","","","","clear_screen","","","","","","","","","","","","","","","","","","","","","","","","","",""
"","","","","","canvas-keyboard-response","84","340013","0.0-12.0-2.14","2d_cat_multi_stim_exp1","2022-4-5","16:11:5","25","75","3","9","10","40","30","120","15","20","[""Prefer not to say""]","Yes","Female","2267589","2156","u","learn","","","learn_trial","25","75","in","1","1","","","","","","","","","","","","","","","","","","","","",""
"","","","","","canvas-keyboard-response","85","340523","0.0-12.0-3.14","2d_cat_multi_stim_exp1","2022-4-5","16:11:5","25","75","3","9","10","40","30","120","15","20","[""Prefer not to say""]","Yes","Female","2267589","null","null","learn_feedback","","","learn_feedback","25","75","in","","","","","","","","","","","","","","","","","","","","","","",""
"","","","","","canvas-keyboard-response","86","340582","0.0-12.0-4.14","2d_cat_multi_stim_exp1","2022-4-5","16:11:5","25","75","3","9","10","40","30","120","15","20","[""Prefer not to say""]","Yes","Female","2267589","null","null","","","","clear_screen","","","","","","","","","","","","","","","","","","","","","","","","","",""
"","","","","","canvas-keyboard-response","87","341090","0.0-12.0-0.15","2d_cat_multi_stim_exp1","2022-4-5","16:11:5","25","75","3","9","10","40","30","120","15","20","[""Prefer not to say""]","Yes","Female","2267589","null","null","","","","fixation","","","","","","","","","","","","","","","","","","","","","","","","","",""
"","","","","","canvas-keyboard-response","88","341600","0.0-12.0-1.15","2d_cat_multi_stim_exp1","2022-4-5","16:11:5","25","75","3","9","10","40","30","120","15","20","[""Prefer not to say""]","Yes","Female","2267589","null","null","","","","clear_screen","","","","","","","","","","","","","","","","","","","","","","","","","",""
"","","","","","canvas-keyboard-response","89","342764","0.0-12.0-2.15","2d_cat_multi_stim_exp1","2022-4-5","16:11:5","25","75","3","9","10","40","30","120","15","20","[""Prefer not to say""]","Yes","Female","2267589","1154","i","learn","","","learn_trial","33.3333","70","out","0","1","","","","","","","","","","","","","","","","","","","","",""
"","","","","","canvas-keyboard-response","90","343273","0.0-12.0-3.15","2d_cat_multi_stim_exp1","2022-4-5","16:11:5","25","75","3","9","10","40","30","120","15","20","[""Prefer not to say""]","Yes","Female","2267589","null","null","learn_feedback","","","learn_feedback","33.3333","70","out","","","","","","","","","","","","","","","","","","","","","","",""
"","","","","","canvas-keyboard-response","91","343331","0.0-12.0-4.15","2d_cat_multi_stim_exp1","2022-4-5","16:11:5","25","75","3","9","10","40","30","120","15","20","[""Prefer not to say""]","Yes","Female","2267589","null","null","","","","clear_screen","","","","","","","","","","","","","","","","","","","","","","","","","",""
"","","","","","canvas-keyboard-response","92","343839","0.0-12.0-0.16","2d_cat_multi_stim_exp1","2022-4-5","16:11:5","25","75","3","9","10","40","30","120","15","20","[""Prefer not to say""]","Yes","Female","2267589","null","null","","","","fixation","","","","","","","","","","","","","","","","","","","","","","","","","",""
"","","","","","canvas-keyboard-response","93","344348","0.0-12.0-1.16","2d_cat_multi_stim_exp1","2022-4-5","16:11:5","25","75","3","9","10","40","30","120","15","20","[""Prefer not to say""]","Yes","Female","2267589","null","null","","","","clear_screen","","","","","","","","","","","","","","","","","","","","","","","","","",""
"","","","","","canvas-keyboard-response","94","345756","0.0-12.0-2.16","2d_cat_multi_stim_exp1","2022-4-5","16:11:5","25","75","3","9","10","40","30","120","15","20","[""Prefer not to say""]","Yes","Female","2267589","1399","i","learn","","","learn_trial","25","75","in","0","0","","","","","","","","","","","","","","","","","","","","",""
"","","","","","canvas-keyboard-response","95","346766","0.0-12.0-3.16","2d_cat_multi_stim_exp1","2022-4-5","16:11:5","25","75","3","9","10","40","30","120","15","20","[""Prefer not to say""]","Yes","Female","2267589","null","null","learn_feedback","","","learn_feedback","25","75","in","","","","","","","","","","","","","","","","","","","","","","",""
"","","","","","canvas-keyboard-response","96","346825","0.0-12.0-4.16","2d_cat_multi_stim_exp1","2022-4-5","16:11:5","25","75","3","9","10","40","30","120","15","20","[""Prefer not to say""]","Yes","Female","2267589","null","null","","","","clear_screen","","","","","","","","","","","","","","","","","","","","","","","","","",""
"","","","","","canvas-keyboard-response","97","347337","0.0-12.0-0.17","2d_cat_multi_stim_exp1","2022-4-5","16:11:5","25","75","3","9","10","40","30","120","15","20","[""Prefer not to say""]","Yes","Female","2267589","null","null","","","","fixation","","","","","","","","","","","","","","","","","","","","","","","","","",""
"","","","","","canvas-keyboard-response","98","347846","0.0-12.0-1.17","2d_cat_multi_stim_exp1","2022-4-5","16:11:5","25","75","3","9","10","40","30","120","15","20","[""Prefer not to say""]","Yes","Female","2267589","null","null","","","","clear_screen","","","","","","","","","","","","","","","","","","","","","","","","","",""
"","","","","","canvas-keyboard-response","99","351540","0.0-12.0-2.17","2d_cat_multi_stim_exp1","2022-4-5","16:11:5","25","75","3","9","10","40","30","120","15","20","[""Prefer not to say""]","Yes","Female","2267589","3685","u","learn","","","learn_trial","25","75","in","1","1","","","","","","","","","","","","","","","","","","","","",""
"","","","","","canvas-keyboard-response","100","352049","0.0-12.0-3.17","2d_cat_multi_stim_exp1","2022-4-5","16:11:5","25","75","3","9","10","40","30","120","15","20","[""Prefer not to say""]","Yes","Female","2267589","null","null","learn_feedback","","","learn_feedback","25","75","in","","","","","","","","","","","","","","","","","","","","","","",""
"","","","","","canvas-keyboard-response","101","352107","0.0-12.0-4.17","2d_cat_multi_stim_exp1","2022-4-5","16:11:5","25","75","3","9","10","40","30","120","15","20","[""Prefer not to say""]","Yes","Female","2267589","null","null","","","","clear_screen","","","","","","","","","","","","","","","","","","","","","","","","","",""
"","","","","","canvas-keyboard-response","102","352615","0.0-12.0-0.18","2d_cat_multi_stim_exp1","2022-4-5","16:11:5","25","75","3","9","10","40","30","120","15","20","[""Prefer not to say""]","Yes","Female","2267589","null","null","","","","fixation","","","","","","","","","","","","","","","","","","","","","","","","","",""
"","","","","","canvas-keyboard-response","103","353123","0.0-12.0-1.18","2d_cat_multi_stim_exp1","2022-4-5","16:11:5","25","75","3","9","10","40","30","120","15","20","[""Prefer not to say""]","Yes","Female","2267589","null","null","","","","clear_screen","","","","","","","","","","","","","","","","","","","","","","","","","",""
"","","","","","canvas-keyboard-response","104","358251","0.0-12.0-2.18","2d_cat_multi_stim_exp1","2022-4-5","16:11:5","25","75","3","9","10","40","30","120","15","20","[""Prefer not to say""]","Yes","Female","2267589","5119","i","learn","","","learn_trial","33.3333","90","out","0","1","","","","","","","","","","","","","","","","","","","","",""
"","","","","","canvas-keyboard-response","105","358761","0.0-12.0-3.18","2d_cat_multi_stim_exp1","2022-4-5","16:11:5","25","75","3","9","10","40","30","120","15","20","[""Prefer not to say""]","Yes","Female","2267589","null","null","learn_feedback","","","learn_feedback","33.3333","90","out","","","","","","","","","","","","","","","","","","","","","","",""
"","","","","","canvas-keyboard-response","106","358818","0.0-12.0-4.18","2d_cat_multi_stim_exp1","2022-4-5","16:11:5","25","75","3","9","10","40","30","120","15","20","[""Prefer not to say""]","Yes","Female","2267589","null","null","","","","clear_screen","","","","","","","","","","","","","","","","","","","","","","","","","",""
"","","","","","canvas-keyboard-response","107","359326","0.0-12.0-0.19","2d_cat_multi_stim_exp1","2022-4-5","16:11:5","25","75","3","9","10","40","30","120","15","20","[""Prefer not to say""]","Yes","Female","2267589","null","null","","","","fixation","","","","","","","","","","","","","","","","","","","","","","","","","",""
"","","","","","canvas-keyboard-response","108","359836","0.0-12.0-1.19","2d_cat_multi_stim_exp1","2022-4-5","16:11:5","25","75","3","9","10","40","30","120","15","20","[""Prefer not to say""]","Yes","Female","2267589","null","null","","","","clear_screen","","","","","","","","","","","","","","","","","","","","","","","","","",""
"","","","","","canvas-keyboard-response","109","361956","0.0-12.0-2.19","2d_cat_multi_stim_exp1","2022-4-5","16:11:5","25","75","3","9","10","40","30","120","15","20","[""Prefer not to say""]","Yes","Female","2267589","2112","i","learn","","","learn_trial","13.3333","110","out","0","1","","","","","","","","","","","","","","","","","","","","",""
"","","","","","canvas-keyboard-response","110","362465","0.0-12.0-3.19","2d_cat_multi_stim_exp1","2022-4-5","16:11:5","25","75","3","9","10","40","30","120","15","20","[""Prefer not to say""]","Yes","Female","2267589","null","null","learn_feedback","","","learn_feedback","13.3333","110","out","","","","","","","","","","","","","","","","","","","","","","",""
"","","","","","canvas-keyboard-response","111","362524","0.0-12.0-4.19","2d_cat_multi_stim_exp1","2022-4-5","16:11:5","25","75","3","9","10","40","30","120","15","20","[""Prefer not to say""]","Yes","Female","2267589","null","null","","","","clear_screen","","","","","","","","","","","","","","","","","","","","","","","","","",""
"","","","","","canvas-keyboard-response","112","363032","0.0-12.0-0.20","2d_cat_multi_stim_exp1","2022-4-5","16:11:5","25","75","3","9","10","40","30","120","15","20","[""Prefer not to say""]","Yes","Female","2267589","null","null","","","","fixation","","","","","","","","","","","","","","","","","","","","","","","","","",""
"","","","","","canvas-keyboard-response","113","363544","0.0-12.0-1.20","2d_cat_multi_stim_exp1","2022-4-5","16:11:5","25","75","3","9","10","40","30","120","15","20","[""Prefer not to say""]","Yes","Female","2267589","null","null","","","","clear_screen","","","","","","","","","","","","","","","","","","","","","","","","","",""
"","","","","","canvas-keyboard-response","114","365515","0.0-12.0-2.20","2d_cat_multi_stim_exp1","2022-4-5","16:11:5","25","75","3","9","10","40","30","120","15","20","[""Prefer not to say""]","Yes","Female","2267589","1960","u","learn","","","learn_trial","27.9518","73.393","in","1","1","","","","","","","","","","","","","","","","","","","","",""
"","","","","","canvas-keyboard-response","115","366028","0.0-12.0-3.20","2d_cat_multi_stim_exp1","2022-4-5","16:11:5","25","75","3","9","10","40","30","120","15","20","[""Prefer not to say""]","Yes","Female","2267589","null","null","learn_feedback","","","learn_feedback","27.9518","73.393","in","","","","","","","","","","","","","","","","","","","","","","",""
"","","","","","canvas-keyboard-response","116","366087","0.0-12.0-4.20","2d_cat_multi_stim_exp1","2022-4-5","16:11:5","25","75","3","9","10","40","30","120","15","20","[""Prefer not to say""]","Yes","Female","2267589","null","null","","","","clear_screen","","","","","","","","","","","","","","","","","","","","","","","","","",""
"","","","","","canvas-keyboard-response","117","366596","0.0-12.0-0.21","2d_cat_multi_stim_exp1","2022-4-5","16:11:5","25","75","3","9","10","40","30","120","15","20","[""Prefer not to say""]","Yes","Female","2267589","null","null","","","","fixation","","","","","","","","","","","","","","","","","","","","","","","","","",""
"","","","","","canvas-keyboard-response","118","367105","0.0-12.0-1.21","2d_cat_multi_stim_exp1","2022-4-5","16:11:5","25","75","3","9","10","40","30","120","15","20","[""Prefer not to say""]","Yes","Female","2267589","null","null","","","","clear_screen","","","","","","","","","","","","","","","","","","","","","","","","","",""
"","","","","","canvas-keyboard-response","119","368100","0.0-12.0-2.21","2d_cat_multi_stim_exp1","2022-4-5","16:11:5","25","75","3","9","10","40","30","120","15","20","[""Prefer not to say""]","Yes","Female","2267589","985","i","learn","","","learn_trial","10","100","out","0","1","","","","","","","","","","","","","","","","","","","","",""
"","","","","","canvas-keyboard-response","120","368609","0.0-12.0-3.21","2d_cat_multi_stim_exp1","2022-4-5","16:11:5","25","75","3","9","10","40","30","120","15","20","[""Prefer not to say""]","Yes","Female","2267589","null","null","learn_feedback","","","learn_feedback","10","100","out","","","","","","","","","","","","","","","","","","","","","","",""
"","","","","","canvas-keyboard-response","121","368667","0.0-12.0-4.21","2d_cat_multi_stim_exp1","2022-4-5","16:11:5","25","75","3","9","10","40","30","120","15","20","[""Prefer not to say""]","Yes","Female","2267589","null","null","","","","clear_screen","","","","","","","","","","","","","","","","","","","","","","","","","",""
"","","","","","canvas-keyboard-response","122","369176","0.0-12.0-0.22","2d_cat_multi_stim_exp1","2022-4-5","16:11:5","25","75","3","9","10","40","30","120","15","20","[""Prefer not to say""]","Yes","Female","2267589","null","null","","","","fixation","","","","","","","","","","","","","","","","","","","","","","","","","",""
"","","","","","canvas-keyboard-response","123","369687","0.0-12.0-1.22","2d_cat_multi_stim_exp1","2022-4-5","16:11:5","25","75","3","9","10","40","30","120","15","20","[""Prefer not to say""]","Yes","Female","2267589","null","null","","","","clear_screen","","","","","","","","","","","","","","","","","","","","","","","","","",""
"","","","","","canvas-keyboard-response","124","371004","0.0-12.0-2.22","2d_cat_multi_stim_exp1","2022-4-5","16:11:5","25","75","3","9","10","40","30","120","15","20","[""Prefer not to say""]","Yes","Female","2267589","1308","i","learn","","","learn_trial","30","70","out","0","1","","","","","","","","","","","","","","","","","","","","",""
"","","","","","canvas-keyboard-response","125","371512","0.0-12.0-3.22","2d_cat_multi_stim_exp1","2022-4-5","16:11:5","25","75","3","9","10","40","30","120","15","20","[""Prefer not to say""]","Yes","Female","2267589","null","null","learn_feedback","","","learn_feedback","30","70","out","","","","","","","","","","","","","","","","","","","","","","",""
"","","","","","canvas-keyboard-response","126","371571","0.0-12.0-4.22","2d_cat_multi_stim_exp1","2022-4-5","16:11:5","25","75","3","9","10","40","30","120","15","20","[""Prefer not to say""]","Yes","Female","2267589","null","null","","","","clear_screen","","","","","","","","","","","","","","","","","","","","","","","","","",""
"","","","","","canvas-keyboard-response","127","372079","0.0-12.0-0.23","2d_cat_multi_stim_exp1","2022-4-5","16:11:5","25","75","3","9","10","40","30","120","15","20","[""Prefer not to say""]","Yes","Female","2267589","null","null","","","","fixation","","","","","","","","","","","","","","","","","","","","","","","","","",""
"","","","","","canvas-keyboard-response","128","372590","0.0-12.0-1.23","2d_cat_multi_stim_exp1","2022-4-5","16:11:5","25","75","3","9","10","40","30","120","15","20","[""Prefer not to say""]","Yes","Female","2267589","null","null","","","","clear_screen","","","","","","","","","","","","","","","","","","","","","","","","","",""
"","","","","","canvas-keyboard-response","129","375196","0.0-12.0-2.23","2d_cat_multi_stim_exp1","2022-4-5","16:11:5","25","75","3","9","10","40","30","120","15","20","[""Prefer not to say""]","Yes","Female","2267589","2599","i","learn","","","learn_trial","25.9271","66.4405","in","0","0","","","","","","","","","","","","","","","","","","","","",""
"","","","","","canvas-keyboard-response","130","376205","0.0-12.0-3.23","2d_cat_multi_stim_exp1","2022-4-5","16:11:5","25","75","3","9","10","40","30","120","15","20","[""Prefer not to say""]","Yes","Female","2267589","null","null","learn_feedback","","","learn_feedback","25.9271","66.4405","in","","","","","","","","","","","","","","","","","","","","","","",""
"","","","","","canvas-keyboard-response","131","376263","0.0-12.0-4.23","2d_cat_multi_stim_exp1","2022-4-5","16:11:5","25","75","3","9","10","40","30","120","15","20","[""Prefer not to say""]","Yes","Female","2267589","null","null","","","","clear_screen","","","","","","","","","","","","","","","","","","","","","","","","","",""
"","","","","","canvas-keyboard-response","132","376772","0.0-12.0-0.24","2d_cat_multi_stim_exp1","2022-4-5","16:11:5","25","75","3","9","10","40","30","120","15","20","[""Prefer not to say""]","Yes","Female","2267589","null","null","","","","fixation","","","","","","","","","","","","","","","","","","","","","","","","","",""
"","","","","","canvas-keyboard-response","133","377281","0.0-12.0-1.24","2d_cat_multi_stim_exp1","2022-4-5","16:11:5","25","75","3","9","10","40","30","120","15","20","[""Prefer not to say""]","Yes","Female","2267589","null","null","","","","clear_screen","","","","","","","","","","","","","","","","","","","","","","","","","",""
"","","","","","canvas-keyboard-response","134","378171","0.0-12.0-2.24","2d_cat_multi_stim_exp1","2022-4-5","16:11:5","25","75","3","9","10","40","30","120","15","20","[""Prefer not to say""]","Yes","Female","2267589","882","i","learn","","","learn_trial","13.3333","30","out","0","1","","","","","","","","","","","","","","","","","","","","",""
"","","","","","canvas-keyboard-response","135","378680","0.0-12.0-3.24","2d_cat_multi_stim_exp1","2022-4-5","16:11:5","25","75","3","9","10","40","30","120","15","20","[""Prefer not to say""]","Yes","Female","2267589","null","null","learn_feedback","","","learn_feedback","13.3333","30","out","","","","","","","","","","","","","","","","","","","","","","",""
"","","","","","canvas-keyboard-response","136","378739","0.0-12.0-4.24","2d_cat_multi_stim_exp1","2022-4-5","16:11:5","25","75","3","9","10","40","30","120","15","20","[""Prefer not to say""]","Yes","Female","2267589","null","null","","","","clear_screen","","","","","","","","","","","","","","","","","","","","","","","","","",""
"","","","","","canvas-keyboard-response","137","379247","0.0-12.0-0.25","2d_cat_multi_stim_exp1","2022-4-5","16:11:5","25","75","3","9","10","40","30","120","15","20","[""Prefer not to say""]","Yes","Female","2267589","null","null","","","","fixation","","","","","","","","","","","","","","","","","","","","","","","","","",""
"","","","","","canvas-keyboard-response","138","379755","0.0-12.0-1.25","2d_cat_multi_stim_exp1","2022-4-5","16:11:5","25","75","3","9","10","40","30","120","15","20","[""Prefer not to say""]","Yes","Female","2267589","null","null","","","","clear_screen","","","","","","","","","","","","","","","","","","","","","","","","","",""
"","","","","","canvas-keyboard-response","139","381187","0.0-12.0-2.25","2d_cat_multi_stim_exp1","2022-4-5","16:11:5","25","75","3","9","10","40","30","120","15","20","[""Prefer not to say""]","Yes","Female","2267589","1423","u","learn","","","learn_trial","25","75","in","1","1","","","","","","","","","","","","","","","","","","","","",""
"","","","","","canvas-keyboard-response","140","381696","0.0-12.0-3.25","2d_cat_multi_stim_exp1","2022-4-5","16:11:5","25","75","3","9","10","40","30","120","15","20","[""Prefer not to say""]","Yes","Female","2267589","null","null","learn_feedback","","","learn_feedback","25","75","in","","","","","","","","","","","","","","","","","","","","","","",""
"","","","","","canvas-keyboard-response","141","381754","0.0-12.0-4.25","2d_cat_multi_stim_exp1","2022-4-5","16:11:5","25","75","3","9","10","40","30","120","15","20","[""Prefer not to say""]","Yes","Female","2267589","null","null","","","","clear_screen","","","","","","","","","","","","","","","","","","","","","","","","","",""
"","","","","","canvas-keyboard-response","142","382262","0.0-12.0-0.26","2d_cat_multi_stim_exp1","2022-4-5","16:11:5","25","75","3","9","10","40","30","120","15","20","[""Prefer not to say""]","Yes","Female","2267589","null","null","","","","fixation","","","","","","","","","","","","","","","","","","","","","","","","","",""
"","","","","","canvas-keyboard-response","143","382774","0.0-12.0-1.26","2d_cat_multi_stim_exp1","2022-4-5","16:11:5","25","75","3","9","10","40","30","120","15","20","[""Prefer not to say""]","Yes","Female","2267589","null","null","","","","clear_screen","","","","","","","","","","","","","","","","","","","","","","","","","",""
"","","","","","canvas-keyboard-response","144","385019","0.0-12.0-2.26","2d_cat_multi_stim_exp1","2022-4-5","16:11:5","25","75","3","9","10","40","30","120","15","20","[""Prefer not to say""]","Yes","Female","2267589","2238","u","learn","","","learn_trial","25","75","in","1","1","","","","","","","","","","","","","","","","","","","","",""
"","","","","","canvas-keyboard-response","145","385528","0.0-12.0-3.26","2d_cat_multi_stim_exp1","2022-4-5","16:11:5","25","75","3","9","10","40","30","120","15","20","[""Prefer not to say""]","Yes","Female","2267589","null","null","learn_feedback","","","learn_feedback","25","75","in","","","","","","","","","","","","","","","","","","","","","","",""
"","","","","","canvas-keyboard-response","146","385586","0.0-12.0-4.26","2d_cat_multi_stim_exp1","2022-4-5","16:11:5","25","75","3","9","10","40","30","120","15","20","[""Prefer not to say""]","Yes","Female","2267589","null","null","","","","clear_screen","","","","","","","","","","","","","","","","","","","","","","","","","",""
"","","","","","canvas-keyboard-response","147","386094","0.0-12.0-0.27","2d_cat_multi_stim_exp1","2022-4-5","16:11:5","25","75","3","9","10","40","30","120","15","20","[""Prefer not to say""]","Yes","Female","2267589","null","null","","","","fixation","","","","","","","","","","","","","","","","","","","","","","","","","",""
"","","","","","canvas-keyboard-response","148","386603","0.0-12.0-1.27","2d_cat_multi_stim_exp1","2022-4-5","16:11:5","25","75","3","9","10","40","30","120","15","20","[""Prefer not to say""]","Yes","Female","2267589","null","null","","","","clear_screen","","","","","","","","","","","","","","","","","","","","","","","","","",""
"","","","","","canvas-keyboard-response","149","387396","0.0-12.0-2.27","2d_cat_multi_stim_exp1","2022-4-5","16:11:5","25","75","3","9","10","40","30","120","15","20","[""Prefer not to say""]","Yes","Female","2267589","784","i","learn","","","learn_trial","13.3333","40","out","0","1","","","","","","","","","","","","","","","","","","","","",""
"","","","","","canvas-keyboard-response","150","387904","0.0-12.0-3.27","2d_cat_multi_stim_exp1","2022-4-5","16:11:5","25","75","3","9","10","40","30","120","15","20","[""Prefer not to say""]","Yes","Female","2267589","null","null","learn_feedback","","","learn_feedback","13.3333","40","out","","","","","","","","","","","","","","","","","","","","","","",""
"","","","","","canvas-keyboard-response","151","387963","0.0-12.0-4.27","2d_cat_multi_stim_exp1","2022-4-5","16:11:5","25","75","3","9","10","40","30","120","15","20","[""Prefer not to say""]","Yes","Female","2267589","null","null","","","","clear_screen","","","","","","","","","","","","","","","","","","","","","","","","","",""
"","","","","","canvas-keyboard-response","152","388471","0.0-12.0-0.28","2d_cat_multi_stim_exp1","2022-4-5","16:11:5","25","75","3","9","10","40","30","120","15","20","[""Prefer not to say""]","Yes","Female","2267589","null","null","","","","fixation","","","","","","","","","","","","","","","","","","","","","","","","","",""
"","","","","","canvas-keyboard-response","153","388979","0.0-12.0-1.28","2d_cat_multi_stim_exp1","2022-4-5","16:11:5","25","75","3","9","10","40","30","120","15","20","[""Prefer not to say""]","Yes","Female","2267589","null","null","","","","clear_screen","","","","","","","","","","","","","","","","","","","","","","","","","",""
"","","","","","canvas-keyboard-response","154","389939","0.0-12.0-2.28","2d_cat_multi_stim_exp1","2022-4-5","16:11:5","25","75","3","9","10","40","30","120","15","20","[""Prefer not to say""]","Yes","Female","2267589","952","u","learn","","","learn_trial","13.3333","60","out","1","0","","","","","","","","","","","","","","","","","","","","",""
"","","","","","canvas-keyboard-response","155","390948","0.0-12.0-3.28","2d_cat_multi_stim_exp1","2022-4-5","16:11:5","25","75","3","9","10","40","30","120","15","20","[""Prefer not to say""]","Yes","Female","2267589","null","null","learn_feedback","","","learn_feedback","13.3333","60","out","","","","","","","","","","","","","","","","","","","","","","",""
"","","","","","canvas-keyboard-response","156","391006","0.0-12.0-4.28","2d_cat_multi_stim_exp1","2022-4-5","16:11:5","25","75","3","9","10","40","30","120","15","20","[""Prefer not to say""]","Yes","Female","2267589","null","null","","","","clear_screen","","","","","","","","","","","","","","","","","","","","","","","","","",""
"","","","","","canvas-keyboard-response","157","391514","0.0-12.0-0.29","2d_cat_multi_stim_exp1","2022-4-5","16:11:5","25","75","3","9","10","40","30","120","15","20","[""Prefer not to say""]","Yes","Female","2267589","null","null","","","","fixation","","","","","","","","","","","","","","","","","","","","","","","","","",""
"","","","","","canvas-keyboard-response","158","392023","0.0-12.0-1.29","2d_cat_multi_stim_exp1","2022-4-5","16:11:5","25","75","3","9","10","40","30","120","15","20","[""Prefer not to say""]","Yes","Female","2267589","null","null","","","","clear_screen","","","","","","","","","","","","","","","","","","","","","","","","","",""
"","","","","","canvas-keyboard-response","159","393635","0.0-12.0-2.29","2d_cat_multi_stim_exp1","2022-4-5","16:11:5","25","75","3","9","10","40","30","120","15","20","[""Prefer not to say""]","Yes","Female","2267589","1604","i","learn","","","learn_trial","40","70","out","0","1","","","","","","","","","","","","","","","","","","","","",""
"","","","","","canvas-keyboard-response","160","394144","0.0-12.0-3.29","2d_cat_multi_stim_exp1","2022-4-5","16:11:5","25","75","3","9","10","40","30","120","15","20","[""Prefer not to say""]","Yes","Female","2267589","null","null","learn_feedback","","","learn_feedback","40","70","out","","","","","","","","","","","","","","","","","","","","","","",""
"","","","","","canvas-keyboard-response","161","394202","0.0-12.0-4.29","2d_cat_multi_stim_exp1","2022-4-5","16:11:5","25","75","3","9","10","40","30","120","15","20","[""Prefer not to say""]","Yes","Female","2267589","null","null","","","","clear_screen","","","","","","","","","","","","","","","","","","","","","","","","","",""
"","","","","","canvas-keyboard-response","162","394709","0.0-12.0-0.30","2d_cat_multi_stim_exp1","2022-4-5","16:11:5","25","75","3","9","10","40","30","120","15","20","[""Prefer not to say""]","Yes","Female","2267589","null","null","","","","fixation","","","","","","","","","","","","","","","","","","","","","","","","","",""
"","","","","","canvas-keyboard-response","163","395219","0.0-12.0-1.30","2d_cat_multi_stim_exp1","2022-4-5","16:11:5","25","75","3","9","10","40","30","120","15","20","[""Prefer not to say""]","Yes","Female","2267589","null","null","","","","clear_screen","","","","","","","","","","","","","","","","","","","","","","","","","",""
"","","","","","canvas-keyboard-response","164","396916","0.0-12.0-2.30","2d_cat_multi_stim_exp1","2022-4-5","16:11:5","25","75","3","9","10","40","30","120","15","20","[""Prefer not to say""]","Yes","Female","2267589","1690","i","learn","","","learn_trial","40","60","out","0","1","","","","","","","","","","","","","","","","","","","","",""
"","","","","","canvas-keyboard-response","165","397424","0.0-12.0-3.30","2d_cat_multi_stim_exp1","2022-4-5","16:11:5","25","75","3","9","10","40","30","120","15","20","[""Prefer not to say""]","Yes","Female","2267589","null","null","learn_feedback","","","learn_feedback","40","60","out","","","","","","","","","","","","","","","","","","","","","","",""
"","","","","","canvas-keyboard-response","166","397483","0.0-12.0-4.30","2d_cat_multi_stim_exp1","2022-4-5","16:11:5","25","75","3","9","10","40","30","120","15","20","[""Prefer not to say""]","Yes","Female","2267589","null","null","","","","clear_screen","","","","","","","","","","","","","","","","","","","","","","","","","",""
"","","","","","canvas-keyboard-response","167","397990","0.0-12.0-0.31","2d_cat_multi_stim_exp1","2022-4-5","16:11:5","25","75","3","9","10","40","30","120","15","20","[""Prefer not to say""]","Yes","Female","2267589","null","null","","","","fixation","","","","","","","","","","","","","","","","","","","","","","","","","",""
"","","","","","canvas-keyboard-response","168","398499","0.0-12.0-1.31","2d_cat_multi_stim_exp1","2022-4-5","16:11:5","25","75","3","9","10","40","30","120","15","20","[""Prefer not to say""]","Yes","Female","2267589","null","null","","","","clear_screen","","","","","","","","","","","","","","","","","","","","","","","","","",""
"","","","","","canvas-keyboard-response","169","400539","0.0-12.0-2.31","2d_cat_multi_stim_exp1","2022-4-5","16:11:5","25","75","3","9","10","40","30","120","15","20","[""Prefer not to say""]","Yes","Female","2267589","2032","i","learn","","","learn_trial","10","40","out","0","1","","","","","","","","","","","","","","","","","","","","",""
"","","","","","canvas-keyboard-response","170","401047","0.0-12.0-3.31","2d_cat_multi_stim_exp1","2022-4-5","16:11:5","25","75","3","9","10","40","30","120","15","20","[""Prefer not to say""]","Yes","Female","2267589","null","null","learn_feedback","","","learn_feedback","10","40","out","","","","","","","","","","","","","","","","","","","","","","",""
"","","","","","canvas-keyboard-response","171","401106","0.0-12.0-4.31","2d_cat_multi_stim_exp1","2022-4-5","16:11:5","25","75","3","9","10","40","30","120","15","20","[""Prefer not to say""]","Yes","Female","2267589","null","null","","","","clear_screen","","","","","","","","","","","","","","","","","","","","","","","","","",""
"","","","","","canvas-keyboard-response","172","401613","0.0-12.0-0.32","2d_cat_multi_stim_exp1","2022-4-5","16:11:5","25","75","3","9","10","40","30","120","15","20","[""Prefer not to say""]","Yes","Female","2267589","null","null","","","","fixation","","","","","","","","","","","","","","","","","","","","","","","","","",""
"","","","","","canvas-keyboard-response","173","402122","0.0-12.0-1.32","2d_cat_multi_stim_exp1","2022-4-5","16:11:5","25","75","3","9","10","40","30","120","15","20","[""Prefer not to say""]","Yes","Female","2267589","null","null","","","","clear_screen","","","","","","","","","","","","","","","","","","","","","","","","","",""
"","","","","","canvas-keyboard-response","174","403756","0.0-12.0-2.32","2d_cat_multi_stim_exp1","2022-4-5","16:11:5","25","75","3","9","10","40","30","120","15","20","[""Prefer not to say""]","Yes","Female","2267589","1624","u","learn","","","learn_trial","16.6667","80","out","1","0","","","","","","","","","","","","","","","","","","","","",""
"","","","","","canvas-keyboard-response","175","404769","0.0-12.0-3.32","2d_cat_multi_stim_exp1","2022-4-5","16:11:5","25","75","3","9","10","40","30","120","15","20","[""Prefer not to say""]","Yes","Female","2267589","null","null","learn_feedback","","","learn_feedback","16.6667","80","out","","","","","","","","","","","","","","","","","","","","","","",""
"","","","","","canvas-keyboard-response","176","404829","0.0-12.0-4.32","2d_cat_multi_stim_exp1","2022-4-5","16:11:5","25","75","3","9","10","40","30","120","15","20","[""Prefer not to say""]","Yes","Female","2267589","null","null","","","","clear_screen","","","","","","","","","","","","","","","","","","","","","","","","","",""
"","","","","","canvas-keyboard-response","177","405339","0.0-12.0-0.33","2d_cat_multi_stim_exp1","2022-4-5","16:11:5","25","75","3","9","10","40","30","120","15","20","[""Prefer not to say""]","Yes","Female","2267589","null","null","","","","fixation","","","","","","","","","","","","","","","","","","","","","","","","","",""
"","","","","","canvas-keyboard-response","178","405849","0.0-12.0-1.33","2d_cat_multi_stim_exp1","2022-4-5","16:11:5","25","75","3","9","10","40","30","120","15","20","[""Prefer not to say""]","Yes","Female","2267589","null","null","","","","clear_screen","","","","","","","","","","","","","","","","","","","","","","","","","",""
"","","","","","canvas-keyboard-response","179","410019","0.0-12.0-2.33","2d_cat_multi_stim_exp1","2022-4-5","16:11:5","25","75","3","9","10","40","30","120","15","20","[""Prefer not to say""]","Yes","Female","2267589","4162","u","learn","","","learn_trial","27.8087","78.1624","in","1","1","","","","","","","","","","","","","","","","","","","","",""
"","","","","","canvas-keyboard-response","180","410530","0.0-12.0-3.33","2d_cat_multi_stim_exp1","2022-4-5","16:11:5","25","75","3","9","10","40","30","120","15","20","[""Prefer not to say""]","Yes","Female","2267589","null","null","learn_feedback","","","learn_feedback","27.8087","78.1624","in","","","","","","","","","","","","","","","","","","","","","","",""
"","","","","","canvas-keyboard-response","181","410589","0.0-12.0-4.33","2d_cat_multi_stim_exp1","2022-4-5","16:11:5","25","75","3","9","10","40","30","120","15","20","[""Prefer not to say""]","Yes","Female","2267589","null","null","","","","clear_screen","","","","","","","","","","","","","","","","","","","","","","","","","",""
"","","","","","canvas-keyboard-response","182","411097","0.0-12.0-0.34","2d_cat_multi_stim_exp1","2022-4-5","16:11:5","25","75","3","9","10","40","30","120","15","20","[""Prefer not to say""]","Yes","Female","2267589","null","null","","","","fixation","","","","","","","","","","","","","","","","","","","","","","","","","",""
"","","","","","canvas-keyboard-response","183","411605","0.0-12.0-1.34","2d_cat_multi_stim_exp1","2022-4-5","16:11:5","25","75","3","9","10","40","30","120","15","20","[""Prefer not to say""]","Yes","Female","2267589","null","null","","","","clear_screen","","","","","","","","","","","","","","","","","","","","","","","","","",""
"","","","","","canvas-keyboard-response","184","413595","0.0-12.0-2.34","2d_cat_multi_stim_exp1","2022-4-5","16:11:5","25","75","3","9","10","40","30","120","15","20","[""Prefer not to say""]","Yes","Female","2267589","1980","i","learn","","","learn_trial","25","57","in","0","0","","","","","","","","","","","","","","","","","","","","",""
"","","","","","canvas-keyboard-response","185","414606","0.0-12.0-3.34","2d_cat_multi_stim_exp1","2022-4-5","16:11:5","25","75","3","9","10","40","30","120","15","20","[""Prefer not to say""]","Yes","Female","2267589","null","null","learn_feedback","","","learn_feedback","25","57","in","","","","","","","","","","","","","","","","","","","","","","",""
"","","","","","canvas-keyboard-response","186","414671","0.0-12.0-4.34","2d_cat_multi_stim_exp1","2022-4-5","16:11:5","25","75","3","9","10","40","30","120","15","20","[""Prefer not to say""]","Yes","Female","2267589","null","null","","","","clear_screen","","","","","","","","","","","","","","","","","","","","","","","","","",""
"","","","","","canvas-keyboard-response","187","415179","0.0-12.0-0.35","2d_cat_multi_stim_exp1","2022-4-5","16:11:5","25","75","3","9","10","40","30","120","15","20","[""Prefer not to say""]","Yes","Female","2267589","null","null","","","","fixation","","","","","","","","","","","","","","","","","","","","","","","","","",""
"","","","","","canvas-keyboard-response","188","415688","0.0-12.0-1.35","2d_cat_multi_stim_exp1","2022-4-5","16:11:5","25","75","3","9","10","40","30","120","15","20","[""Prefer not to say""]","Yes","Female","2267589","null","null","","","","clear_screen","","","","","","","","","","","","","","","","","","","","","","","","","",""
"","","","","","canvas-keyboard-response","189","416587","0.0-12.0-2.35","2d_cat_multi_stim_exp1","2022-4-5","16:11:5","25","75","3","9","10","40","30","120","15","20","[""Prefer not to say""]","Yes","Female","2267589","892","i","learn","","","learn_trial","40","90","out","0","1","","","","","","","","","","","","","","","","","","","","",""
"","","","","","canvas-keyboard-response","190","417097","0.0-12.0-3.35","2d_cat_multi_stim_exp1","2022-4-5","16:11:5","25","75","3","9","10","40","30","120","15","20","[""Prefer not to say""]","Yes","Female","2267589","null","null","learn_feedback","","","learn_feedback","40","90","out","","","","","","","","","","","","","","","","","","","","","","",""
"","","","","","canvas-keyboard-response","191","417155","0.0-12.0-4.35","2d_cat_multi_stim_exp1","2022-4-5","16:11:5","25","75","3","9","10","40","30","120","15","20","[""Prefer not to say""]","Yes","Female","2267589","null","null","","","","clear_screen","","","","","","","","","","","","","","","","","","","","","","","","","",""
"","","","","","canvas-keyboard-response","192","417664","0.0-12.0-0.36","2d_cat_multi_stim_exp1","2022-4-5","16:11:5","25","75","3","9","10","40","30","120","15","20","[""Prefer not to say""]","Yes","Female","2267589","null","null","","","","fixation","","","","","","","","","","","","","","","","","","","","","","","","","",""
"","","","","","canvas-keyboard-response","193","418172","0.0-12.0-1.36","2d_cat_multi_stim_exp1","2022-4-5","16:11:5","25","75","3","9","10","40","30","120","15","20","[""Prefer not to say""]","Yes","Female","2267589","null","null","","","","clear_screen","","","","","","","","","","","","","","","","","","","","","","","","","",""
"","","","","","canvas-keyboard-response","194","422683","0.0-12.0-2.36","2d_cat_multi_stim_exp1","2022-4-5","16:11:5","25","75","3","9","10","40","30","120","15","20","[""Prefer not to say""]","Yes","Female","2267589","4502","i","learn","","","learn_trial","36.6667","50","out","0","1","","","","","","","","","","","","","","","","","","","","",""
"","","","","","canvas-keyboard-response","195","423192","0.0-12.0-3.36","2d_cat_multi_stim_exp1","2022-4-5","16:11:5","25","75","3","9","10","40","30","120","15","20","[""Prefer not to say""]","Yes","Female","2267589","null","null","learn_feedback","","","learn_feedback","36.6667","50","out","","","","","","","","","","","","","","","","","","","","","","",""
"","","","","","canvas-keyboard-response","196","423251","0.0-12.0-4.36","2d_cat_multi_stim_exp1","2022-4-5","16:11:5","25","75","3","9","10","40","30","120","15","20","[""Prefer not to say""]","Yes","Female","2267589","null","null","","","","clear_screen","","","","","","","","","","","","","","","","","","","","","","","","","",""
"","","","","","canvas-keyboard-response","197","423759","0.0-12.0-0.37","2d_cat_multi_stim_exp1","2022-4-5","16:11:5","25","75","3","9","10","40","30","120","15","20","[""Prefer not to say""]","Yes","Female","2267589","null","null","","","","fixation","","","","","","","","","","","","","","","","","","","","","","","","","",""
"","","","","","canvas-keyboard-response","198","424268","0.0-12.0-1.37","2d_cat_multi_stim_exp1","2022-4-5","16:11:5","25","75","3","9","10","40","30","120","15","20","[""Prefer not to say""]","Yes","Female","2267589","null","null","","","","clear_screen","","","","","","","","","","","","","","","","","","","","","","","","","",""
"","","","","","canvas-keyboard-response","199","430043","0.0-12.0-2.37","2d_cat_multi_stim_exp1","2022-4-5","16:11:5","25","75","3","9","10","40","30","120","15","20","[""Prefer not to say""]","Yes","Female","2267589","5766","u","learn","","","learn_trial","30","90","out","1","0","","","","","","","","","","","","","","","","","","","","",""
"","","","","","canvas-keyboard-response","200","431053","0.0-12.0-3.37","2d_cat_multi_stim_exp1","2022-4-5","16:11:5","25","75","3","9","10","40","30","120","15","20","[""Prefer not to say""]","Yes","Female","2267589","null","null","learn_feedback","","","learn_feedback","30","90","out","","","","","","","","","","","","","","","","","","","","","","",""
"","","","","","canvas-keyboard-response","201","431111","0.0-12.0-4.37","2d_cat_multi_stim_exp1","2022-4-5","16:11:5","25","75","3","9","10","40","30","120","15","20","[""Prefer not to say""]","Yes","Female","2267589","null","null","","","","clear_screen","","","","","","","","","","","","","","","","","","","","","","","","","",""
"","","","","","canvas-keyboard-response","202","431619","0.0-12.0-0.38","2d_cat_multi_stim_exp1","2022-4-5","16:11:5","25","75","3","9","10","40","30","120","15","20","[""Prefer not to say""]","Yes","Female","2267589","null","null","","","","fixation","","","","","","","","","","","","","","","","","","","","","","","","","",""
"","","","","","canvas-keyboard-response","203","432128","0.0-12.0-1.38","2d_cat_multi_stim_exp1","2022-4-5","16:11:5","25","75","3","9","10","40","30","120","15","20","[""Prefer not to say""]","Yes","Female","2267589","null","null","","","","clear_screen","","","","","","","","","","","","","","","","","","","","","","","","","",""
"","","","","","canvas-keyboard-response","204","433987","0.0-12.0-2.38","2d_cat_multi_stim_exp1","2022-4-5","16:11:5","25","75","3","9","10","40","30","120","15","20","[""Prefer not to say""]","Yes","Female","2267589","1850","u","learn","","","learn_trial","22.1081","72.6057","in","1","1","","","","","","","","","","","","","","","","","","","","",""
"","","","","","canvas-keyboard-response","205","434496","0.0-12.0-3.38","2d_cat_multi_stim_exp1","2022-4-5","16:11:5","25","75","3","9","10","40","30","120","15","20","[""Prefer not to say""]","Yes","Female","2267589","null","null","learn_feedback","","","learn_feedback","22.1081","72.6057","in","","","","","","","","","","","","","","","","","","","","","","",""
"","","","","","canvas-keyboard-response","206","434554","0.0-12.0-4.38","2d_cat_multi_stim_exp1","2022-4-5","16:11:5","25","75","3","9","10","40","30","120","15","20","[""Prefer not to say""]","Yes","Female","2267589","null","null","","","","clear_screen","","","","","","","","","","","","","","","","","","","","","","","","","",""
"","","","","","canvas-keyboard-response","207","435062","0.0-12.0-0.39","2d_cat_multi_stim_exp1","2022-4-5","16:11:5","25","75","3","9","10","40","30","120","15","20","[""Prefer not to say""]","Yes","Female","2267589","null","null","","","","fixation","","","","","","","","","","","","","","","","","","","","","","","","","",""
"","","","","","canvas-keyboard-response","208","435571","0.0-12.0-1.39","2d_cat_multi_stim_exp1","2022-4-5","16:11:5","25","75","3","9","10","40","30","120","15","20","[""Prefer not to say""]","Yes","Female","2267589","null","null","","","","clear_screen","","","","","","","","","","","","","","","","","","","","","","","","","",""
"","","","","","canvas-keyboard-response","209","438091","0.0-12.0-2.39","2d_cat_multi_stim_exp1","2022-4-5","16:11:5","25","75","3","9","10","40","30","120","15","20","[""Prefer not to say""]","Yes","Female","2267589","2511","u","learn","","","learn_trial","22.1081","77.3943","in","1","1","","","","","","","","","","","","","","","","","","","","",""
"","","","","","canvas-keyboard-response","210","438600","0.0-12.0-3.39","2d_cat_multi_stim_exp1","2022-4-5","16:11:5","25","75","3","9","10","40","30","120","15","20","[""Prefer not to say""]","Yes","Female","2267589","null","null","learn_feedback","","","learn_feedback","22.1081","77.3943","in","","","","","","","","","","","","","","","","","","","","","","",""
"","","","","","canvas-keyboard-response","211","438658","0.0-12.0-4.39","2d_cat_multi_stim_exp1","2022-4-5","16:11:5","25","75","3","9","10","40","30","120","15","20","[""Prefer not to say""]","Yes","Female","2267589","null","null","","","","clear_screen","","","","","","","","","","","","","","","","","","","","","","","","","",""
"","","","","","canvas-keyboard-response","212","439166","0.0-12.0-0.40","2d_cat_multi_stim_exp1","2022-4-5","16:11:5","25","75","3","9","10","40","30","120","15","20","[""Prefer not to say""]","Yes","Female","2267589","null","null","","","","fixation","","","","","","","","","","","","","","","","","","","","","","","","","",""
"","","","","","canvas-keyboard-response","213","439675","0.0-12.0-1.40","2d_cat_multi_stim_exp1","2022-4-5","16:11:5","25","75","3","9","10","40","30","120","15","20","[""Prefer not to say""]","Yes","Female","2267589","null","null","","","","clear_screen","","","","","","","","","","","","","","","","","","","","","","","","","",""
"","","","","","canvas-keyboard-response","214","445835","0.0-12.0-2.40","2d_cat_multi_stim_exp1","2022-4-5","16:11:5","25","75","3","9","10","40","30","120","15","20","[""Prefer not to say""]","Yes","Female","2267589","6151","u","learn","","","learn_trial","25","75","in","1","1","","","","","","","","","","","","","","","","","","","","",""
"","","","","","canvas-keyboard-response","215","446343","0.0-12.0-3.40","2d_cat_multi_stim_exp1","2022-4-5","16:11:5","25","75","3","9","10","40","30","120","15","20","[""Prefer not to say""]","Yes","Female","2267589","null","null","learn_feedback","","","learn_feedback","25","75","in","","","","","","","","","","","","","","","","","","","","","","",""
"","","","","","canvas-keyboard-response","216","446403","0.0-12.0-4.40","2d_cat_multi_stim_exp1","2022-4-5","16:11:5","25","75","3","9","10","40","30","120","15","20","[""Prefer not to say""]","Yes","Female","2267589","null","null","","","","clear_screen","","","","","","","","","","","","","","","","","","","","","","","","","",""
"","","","","","canvas-keyboard-response","217","446911","0.0-12.0-0.41","2d_cat_multi_stim_exp1","2022-4-5","16:11:5","25","75","3","9","10","40","30","120","15","20","[""Prefer not to say""]","Yes","Female","2267589","null","null","","","","fixation","","","","","","","","","","","","","","","","","","","","","","","","","",""
"","","","","","canvas-keyboard-response","218","447423","0.0-12.0-1.41","2d_cat_multi_stim_exp1","2022-4-5","16:11:5","25","75","3","9","10","40","30","120","15","20","[""Prefer not to say""]","Yes","Female","2267589","null","null","","","","clear_screen","","","","","","","","","","","","","","","","","","","","","","","","","",""
"","","","","","canvas-keyboard-response","219","449347","0.0-12.0-2.41","2d_cat_multi_stim_exp1","2022-4-5","16:11:5","25","75","3","9","10","40","30","120","15","20","[""Prefer not to say""]","Yes","Female","2267589","1912","u","learn","","","learn_trial","25","75","in","1","1","","","","","","","","","","","","","","","","","","","","",""
"","","","","","canvas-keyboard-response","220","449858","0.0-12.0-3.41","2d_cat_multi_stim_exp1","2022-4-5","16:11:5","25","75","3","9","10","40","30","120","15","20","[""Prefer not to say""]","Yes","Female","2267589","null","null","learn_feedback","","","learn_feedback","25","75","in","","","","","","","","","","","","","","","","","","","","","","",""
"","","","","","canvas-keyboard-response","221","449918","0.0-12.0-4.41","2d_cat_multi_stim_exp1","2022-4-5","16:11:5","25","75","3","9","10","40","30","120","15","20","[""Prefer not to say""]","Yes","Female","2267589","null","null","","","","clear_screen","","","","","","","","","","","","","","","","","","","","","","","","","",""
"","","","","","canvas-keyboard-response","222","450427","0.0-12.0-0.42","2d_cat_multi_stim_exp1","2022-4-5","16:11:5","25","75","3","9","10","40","30","120","15","20","[""Prefer not to say""]","Yes","Female","2267589","null","null","","","","fixation","","","","","","","","","","","","","","","","","","","","","","","","","",""
"","","","","","canvas-keyboard-response","223","450936","0.0-12.0-1.42","2d_cat_multi_stim_exp1","2022-4-5","16:11:5","25","75","3","9","10","40","30","120","15","20","[""Prefer not to say""]","Yes","Female","2267589","null","null","","","","clear_screen","","","","","","","","","","","","","","","","","","","","","","","","","",""
"","","","","","canvas-keyboard-response","224","452507","0.0-12.0-2.42","2d_cat_multi_stim_exp1","2022-4-5","16:11:5","25","75","3","9","10","40","30","120","15","20","[""Prefer not to say""]","Yes","Female","2267589","1562","i","learn","","","learn_trial","16.6667","110","out","0","1","","","","","","","","","","","","","","","","","","","","",""
"","","","","","canvas-keyboard-response","225","453018","0.0-12.0-3.42","2d_cat_multi_stim_exp1","2022-4-5","16:11:5","25","75","3","9","10","40","30","120","15","20","[""Prefer not to say""]","Yes","Female","2267589","null","null","learn_feedback","","","learn_feedback","16.6667","110","out","","","","","","","","","","","","","","","","","","","","","","",""
"","","","","","canvas-keyboard-response","226","453077","0.0-12.0-4.42","2d_cat_multi_stim_exp1","2022-4-5","16:11:5","25","75","3","9","10","40","30","120","15","20","[""Prefer not to say""]","Yes","Female","2267589","null","null","","","","clear_screen","","","","","","","","","","","","","","","","","","","","","","","","","",""
"","","","","","canvas-keyboard-response","227","453586","0.0-12.0-0.43","2d_cat_multi_stim_exp1","2022-4-5","16:11:5","25","75","3","9","10","40","30","120","15","20","[""Prefer not to say""]","Yes","Female","2267589","null","null","","","","fixation","","","","","","","","","","","","","","","","","","","","","","","","","",""
"","","","","","canvas-keyboard-response","228","454095","0.0-12.0-1.43","2d_cat_multi_stim_exp1","2022-4-5","16:11:5","25","75","3","9","10","40","30","120","15","20","[""Prefer not to say""]","Yes","Female","2267589","null","null","","","","clear_screen","","","","","","","","","","","","","","","","","","","","","","","","","",""
"","","","","","canvas-keyboard-response","229","457739","0.0-12.0-2.43","2d_cat_multi_stim_exp1","2022-4-5","16:11:5","25","75","3","9","10","40","30","120","15","20","[""Prefer not to say""]","Yes","Female","2267589","3635","u","learn","","","learn_trial","25","75","in","1","1","","","","","","","","","","","","","","","","","","","","",""
"","","","","","canvas-keyboard-response","230","458248","0.0-12.0-3.43","2d_cat_multi_stim_exp1","2022-4-5","16:11:5","25","75","3","9","10","40","30","120","15","20","[""Prefer not to say""]","Yes","Female","2267589","null","null","learn_feedback","","","learn_feedback","25","75","in","","","","","","","","","","","","","","","","","","","","","","",""
"","","","","","canvas-keyboard-response","231","458306","0.0-12.0-4.43","2d_cat_multi_stim_exp1","2022-4-5","16:11:5","25","75","3","9","10","40","30","120","15","20","[""Prefer not to say""]","Yes","Female","2267589","null","null","","","","clear_screen","","","","","","","","","","","","","","","","","","","","","","","","","",""
"","","","","","canvas-keyboard-response","232","458815","0.0-12.0-0.44","2d_cat_multi_stim_exp1","2022-4-5","16:11:5","25","75","3","9","10","40","30","120","15","20","[""Prefer not to say""]","Yes","Female","2267589","null","null","","","","fixation","","","","","","","","","","","","","","","","","","","","","","","","","",""
"","","","","","canvas-keyboard-response","233","459327","0.0-12.0-1.44","2d_cat_multi_stim_exp1","2022-4-5","16:11:5","25","75","3","9","10","40","30","120","15","20","[""Prefer not to say""]","Yes","Female","2267589","null","null","","","","clear_screen","","","","","","","","","","","","","","","","","","","","","","","","","",""
"","","","","","canvas-keyboard-response","234","460763","0.0-12.0-2.44","2d_cat_multi_stim_exp1","2022-4-5","16:11:5","25","75","3","9","10","40","30","120","15","20","[""Prefer not to say""]","Yes","Female","2267589","1428","i","learn","","","learn_trial","29.2426","62.2721","in","0","0","","","","","","","","","","","","","","","","","","","","",""
"","","","","","canvas-keyboard-response","235","461772","0.0-12.0-3.44","2d_cat_multi_stim_exp1","2022-4-5","16:11:5","25","75","3","9","10","40","30","120","15","20","[""Prefer not to say""]","Yes","Female","2267589","null","null","learn_feedback","","","learn_feedback","29.2426","62.2721","in","","","","","","","","","","","","","","","","","","","","","","",""
"","","","","","canvas-keyboard-response","236","461831","0.0-12.0-4.44","2d_cat_multi_stim_exp1","2022-4-5","16:11:5","25","75","3","9","10","40","30","120","15","20","[""Prefer not to say""]","Yes","Female","2267589","null","null","","","","clear_screen","","","","","","","","","","","","","","","","","","","","","","","","","",""
"","","","","","canvas-keyboard-response","237","462339","0.0-12.0-0.45","2d_cat_multi_stim_exp1","2022-4-5","16:11:5","25","75","3","9","10","40","30","120","15","20","[""Prefer not to say""]","Yes","Female","2267589","null","null","","","","fixation","","","","","","","","","","","","","","","","","","","","","","","","","",""
"","","","","","canvas-keyboard-response","238","462847","0.0-12.0-1.45","2d_cat_multi_stim_exp1","2022-4-5","16:11:5","25","75","3","9","10","40","30","120","15","20","[""Prefer not to say""]","Yes","Female","2267589","null","null","","","","clear_screen","","","","","","","","","","","","","","","","","","","","","","","","","",""
"","","","","","canvas-keyboard-response","239","464028","0.0-12.0-2.45","2d_cat_multi_stim_exp1","2022-4-5","16:11:5","25","75","3","9","10","40","30","120","15","20","[""Prefer not to say""]","Yes","Female","2267589","1171","i","learn","","","learn_trial","36.6667","120","out","0","1","","","","","","","","","","","","","","","","","","","","",""
"","","","","","canvas-keyboard-response","240","464537","0.0-12.0-3.45","2d_cat_multi_stim_exp1","2022-4-5","16:11:5","25","75","3","9","10","40","30","120","15","20","[""Prefer not to say""]","Yes","Female","2267589","null","null","learn_feedback","","","learn_feedback","36.6667","120","out","","","","","","","","","","","","","","","","","","","","","","",""
"","","","","","canvas-keyboard-response","241","464595","0.0-12.0-4.45","2d_cat_multi_stim_exp1","2022-4-5","16:11:5","25","75","3","9","10","40","30","120","15","20","[""Prefer not to say""]","Yes","Female","2267589","null","null","","","","clear_screen","","","","","","","","","","","","","","","","","","","","","","","","","",""
"","","","","","canvas-keyboard-response","242","465103","0.0-12.0-0.46","2d_cat_multi_stim_exp1","2022-4-5","16:11:5","25","75","3","9","10","40","30","120","15","20","[""Prefer not to say""]","Yes","Female","2267589","null","null","","","","fixation","","","","","","","","","","","","","","","","","","","","","","","","","",""
"","","","","","canvas-keyboard-response","243","465612","0.0-12.0-1.46","2d_cat_multi_stim_exp1","2022-4-5","16:11:5","25","75","3","9","10","40","30","120","15","20","[""Prefer not to say""]","Yes","Female","2267589","null","null","","","","clear_screen","","","","","","","","","","","","","","","","","","","","","","","","","",""
"","","","","","canvas-keyboard-response","244","471507","0.0-12.0-2.46","2d_cat_multi_stim_exp1","2022-4-5","16:11:5","25","75","3","9","10","40","30","120","15","20","[""Prefer not to say""]","Yes","Female","2267589","5886","u","learn","","","learn_trial","25","75","in","1","1","","","","","","","","","","","","","","","","","","","","",""
"","","","","","canvas-keyboard-response","245","472019","0.0-12.0-3.46","2d_cat_multi_stim_exp1","2022-4-5","16:11:5","25","75","3","9","10","40","30","120","15","20","[""Prefer not to say""]","Yes","Female","2267589","null","null","learn_feedback","","","learn_feedback","25","75","in","","","","","","","","","","","","","","","","","","","","","","",""
"","","","","","canvas-keyboard-response","246","472080","0.0-12.0-4.46","2d_cat_multi_stim_exp1","2022-4-5","16:11:5","25","75","3","9","10","40","30","120","15","20","[""Prefer not to say""]","Yes","Female","2267589","null","null","","","","clear_screen","","","","","","","","","","","","","","","","","","","","","","","","","",""
"","","","","","canvas-keyboard-response","247","472590","0.0-12.0-0.47","2d_cat_multi_stim_exp1","2022-4-5","16:11:5","25","75","3","9","10","40","30","120","15","20","[""Prefer not to say""]","Yes","Female","2267589","null","null","","","","fixation","","","","","","","","","","","","","","","","","","","","","","","","","",""
"","","","","","canvas-keyboard-response","248","473101","0.0-12.0-1.47","2d_cat_multi_stim_exp1","2022-4-5","16:11:5","25","75","3","9","10","40","30","120","15","20","[""Prefer not to say""]","Yes","Female","2267589","null","null","","","","clear_screen","","","","","","","","","","","","","","","","","","","","","","","","","",""
"","","","","","canvas-keyboard-response","249","476563","0.0-12.0-2.47","2d_cat_multi_stim_exp1","2022-4-5","16:11:5","25","75","3","9","10","40","30","120","15","20","[""Prefer not to say""]","Yes","Female","2267589","3454","u","learn","","","learn_trial","23.8209","83.2757","in","1","1","","","","","","","","","","","","","","","","","","","","",""
"","","","","","canvas-keyboard-response","250","477073","0.0-12.0-3.47","2d_cat_multi_stim_exp1","2022-4-5","16:11:5","25","75","3","9","10","40","30","120","15","20","[""Prefer not to say""]","Yes","Female","2267589","null","null","learn_feedback","","","learn_feedback","23.8209","83.2757","in","","","","","","","","","","","","","","","","","","","","","","",""
"","","","","","canvas-keyboard-response","251","477136","0.0-12.0-4.47","2d_cat_multi_stim_exp1","2022-4-5","16:11:5","25","75","3","9","10","40","30","120","15","20","[""Prefer not to say""]","Yes","Female","2267589","null","null","","","","clear_screen","","","","","","","","","","","","","","","","","","","","","","","","","",""
"","","","","","canvas-keyboard-response","252","477645","0.0-12.0-0.48","2d_cat_multi_stim_exp1","2022-4-5","16:11:5","25","75","3","9","10","40","30","120","15","20","[""Prefer not to say""]","Yes","Female","2267589","null","null","","","","fixation","","","","","","","","","","","","","","","","","","","","","","","","","",""
"","","","","","canvas-keyboard-response","253","478154","0.0-12.0-1.48","2d_cat_multi_stim_exp1","2022-4-5","16:11:5","25","75","3","9","10","40","30","120","15","20","[""Prefer not to say""]","Yes","Female","2267589","null","null","","","","clear_screen","","","","","","","","","","","","","","","","","","","","","","","","","",""
"","","","","","canvas-keyboard-response","254","480020","0.0-12.0-2.48","2d_cat_multi_stim_exp1","2022-4-5","16:11:5","25","75","3","9","10","40","30","120","15","20","[""Prefer not to say""]","Yes","Female","2267589","1857","u","learn","","","learn_trial","25.4027","83.9185","in","1","1","","","","","","","","","","","","","","","","","","","","",""
"","","","","","canvas-keyboard-response","255","480529","0.0-12.0-3.48","2d_cat_multi_stim_exp1","2022-4-5","16:11:5","25","75","3","9","10","40","30","120","15","20","[""Prefer not to say""]","Yes","Female","2267589","null","null","learn_feedback","","","learn_feedback","25.4027","83.9185","in","","","","","","","","","","","","","","","","","","","","","","",""
"","","","","","canvas-keyboard-response","256","480588","0.0-12.0-4.48","2d_cat_multi_stim_exp1","2022-4-5","16:11:5","25","75","3","9","10","40","30","120","15","20","[""Prefer not to say""]","Yes","Female","2267589","null","null","","","","clear_screen","","","","","","","","","","","","","","","","","","","","","","","","","",""
"","","","","","canvas-keyboard-response","257","481096","0.0-12.0-0.49","2d_cat_multi_stim_exp1","2022-4-5","16:11:5","25","75","3","9","10","40","30","120","15","20","[""Prefer not to say""]","Yes","Female","2267589","null","null","","","","fixation","","","","","","","","","","","","","","","","","","","","","","","","","",""
"","","","","","canvas-keyboard-response","258","481605","0.0-12.0-1.49","2d_cat_multi_stim_exp1","2022-4-5","16:11:5","25","75","3","9","10","40","30","120","15","20","[""Prefer not to say""]","Yes","Female","2267589","null","null","","","","clear_screen","","","","","","","","","","","","","","","","","","","","","","","","","",""
"","","","","","canvas-keyboard-response","259","482491","0.0-12.0-2.49","2d_cat_multi_stim_exp1","2022-4-5","16:11:5","25","75","3","9","10","40","30","120","15","20","[""Prefer not to say""]","Yes","Female","2267589","877","i","learn","","","learn_trial","30","50","out","0","1","","","","","","","","","","","","","","","","","","","","",""
"","","","","","canvas-keyboard-response","260","483000","0.0-12.0-3.49","2d_cat_multi_stim_exp1","2022-4-5","16:11:5","25","75","3","9","10","40","30","120","15","20","[""Prefer not to say""]","Yes","Female","2267589","null","null","learn_feedback","","","learn_feedback","30","50","out","","","","","","","","","","","","","","","","","","","","","","",""
"","","","","","canvas-keyboard-response","261","483058","0.0-12.0-4.49","2d_cat_multi_stim_exp1","2022-4-5","16:11:5","25","75","3","9","10","40","30","120","15","20","[""Prefer not to say""]","Yes","Female","2267589","null","null","","","","clear_screen","","","","","","","","","","","","","","","","","","","","","","","","","",""
"","","","","","canvas-keyboard-response","262","483566","0.0-12.0-0.50","2d_cat_multi_stim_exp1","2022-4-5","16:11:5","25","75","3","9","10","40","30","120","15","20","[""Prefer not to say""]","Yes","Female","2267589","null","null","","","","fixation","","","","","","","","","","","","","","","","","","","","","","","","","",""
"","","","","","canvas-keyboard-response","263","484075","0.0-12.0-1.50","2d_cat_multi_stim_exp1","2022-4-5","16:11:5","25","75","3","9","10","40","30","120","15","20","[""Prefer not to say""]","Yes","Female","2267589","null","null","","","","clear_screen","","","","","","","","","","","","","","","","","","","","","","","","","",""
"","","","","","canvas-keyboard-response","264","485195","0.0-12.0-2.50","2d_cat_multi_stim_exp1","2022-4-5","16:11:5","25","75","3","9","10","40","30","120","15","20","[""Prefer not to say""]","Yes","Female","2267589","1111","i","learn","","","learn_trial","20.7574","62.2721","in","0","0","","","","","","","","","","","","","","","","","","","","",""
"","","","","","canvas-keyboard-response","265","486205","0.0-12.0-3.50","2d_cat_multi_stim_exp1","2022-4-5","16:11:5","25","75","3","9","10","40","30","120","15","20","[""Prefer not to say""]","Yes","Female","2267589","null","null","learn_feedback","","","learn_feedback","20.7574","62.2721","in","","","","","","","","","","","","","","","","","","","","","","",""
"","","","","","canvas-keyboard-response","266","486263","0.0-12.0-4.50","2d_cat_multi_stim_exp1","2022-4-5","16:11:5","25","75","3","9","10","40","30","120","15","20","[""Prefer not to say""]","Yes","Female","2267589","null","null","","","","clear_screen","","","","","","","","","","","","","","","","","","","","","","","","","",""
"","","","","","canvas-keyboard-response","267","486770","0.0-12.0-0.51","2d_cat_multi_stim_exp1","2022-4-5","16:11:5","25","75","3","9","10","40","30","120","15","20","[""Prefer not to say""]","Yes","Female","2267589","null","null","","","","fixation","","","","","","","","","","","","","","","","","","","","","","","","","",""
"","","","","","canvas-keyboard-response","268","487279","0.0-12.0-1.51","2d_cat_multi_stim_exp1","2022-4-5","16:11:5","25","75","3","9","10","40","30","120","15","20","[""Prefer not to say""]","Yes","Female","2267589","null","null","","","","clear_screen","","","","","","","","","","","","","","","","","","","","","","","","","",""
"","","","","","canvas-keyboard-response","269","489091","0.0-12.0-2.51","2d_cat_multi_stim_exp1","2022-4-5","16:11:5","25","75","3","9","10","40","30","120","15","20","[""Prefer not to say""]","Yes","Female","2267589","1803","i","learn","","","learn_trial","20","120","out","0","1","","","","","","","","","","","","","","","","","","","","",""
"","","","","","canvas-keyboard-response","270","489600","0.0-12.0-3.51","2d_cat_multi_stim_exp1","2022-4-5","16:11:5","25","75","3","9","10","40","30","120","15","20","[""Prefer not to say""]","Yes","Female","2267589","null","null","learn_feedback","","","learn_feedback","20","120","out","","","","","","","","","","","","","","","","","","","","","","",""
"","","","","","canvas-keyboard-response","271","489658","0.0-12.0-4.51","2d_cat_multi_stim_exp1","2022-4-5","16:11:5","25","75","3","9","10","40","30","120","15","20","[""Prefer not to say""]","Yes","Female","2267589","null","null","","","","clear_screen","","","","","","","","","","","","","","","","","","","","","","","","","",""
"","","","","","canvas-keyboard-response","272","490167","0.0-12.0-0.52","2d_cat_multi_stim_exp1","2022-4-5","16:11:5","25","75","3","9","10","40","30","120","15","20","[""Prefer not to say""]","Yes","Female","2267589","null","null","","","","fixation","","","","","","","","","","","","","","","","","","","","","","","","","",""
"","","","","","canvas-keyboard-response","273","490675","0.0-12.0-1.52","2d_cat_multi_stim_exp1","2022-4-5","16:11:5","25","75","3","9","10","40","30","120","15","20","[""Prefer not to say""]","Yes","Female","2267589","null","null","","","","clear_screen","","","","","","","","","","","","","","","","","","","","","","","","","",""
"","","","","","canvas-keyboard-response","274","491875","0.0-12.0-2.52","2d_cat_multi_stim_exp1","2022-4-5","16:11:5","25","75","3","9","10","40","30","120","15","20","[""Prefer not to say""]","Yes","Female","2267589","1191","i","learn","","","learn_trial","25","75","in","0","0","","","","","","","","","","","","","","","","","","","","",""
"","","","","","canvas-keyboard-response","275","492884","0.0-12.0-3.52","2d_cat_multi_stim_exp1","2022-4-5","16:11:5","25","75","3","9","10","40","30","120","15","20","[""Prefer not to say""]","Yes","Female","2267589","null","null","learn_feedback","","","learn_feedback","25","75","in","","","","","","","","","","","","","","","","","","","","","","",""
"","","","","","canvas-keyboard-response","276","492942","0.0-12.0-4.52","2d_cat_multi_stim_exp1","2022-4-5","16:11:5","25","75","3","9","10","40","30","120","15","20","[""Prefer not to say""]","Yes","Female","2267589","null","null","","","","clear_screen","","","","","","","","","","","","","","","","","","","","","","","","","",""
"","","","","","canvas-keyboard-response","277","493449","0.0-12.0-0.53","2d_cat_multi_stim_exp1","2022-4-5","16:11:5","25","75","3","9","10","40","30","120","15","20","[""Prefer not to say""]","Yes","Female","2267589","null","null","","","","fixation","","","","","","","","","","","","","","","","","","","","","","","","","",""
"","","","","","canvas-keyboard-response","278","493958","0.0-12.0-1.53","2d_cat_multi_stim_exp1","2022-4-5","16:11:5","25","75","3","9","10","40","30","120","15","20","[""Prefer not to say""]","Yes","Female","2267589","null","null","","","","clear_screen","","","","","","","","","","","","","","","","","","","","","","","","","",""
"","","","","","canvas-keyboard-response","279","494987","0.0-12.0-2.53","2d_cat_multi_stim_exp1","2022-4-5","16:11:5","25","75","3","9","10","40","30","120","15","20","[""Prefer not to say""]","Yes","Female","2267589","1019","i","learn","","","learn_trial","25","75","in","0","0","","","","","","","","","","","","","","","","","","","","",""
"","","","","","canvas-keyboard-response","280","495997","0.0-12.0-3.53","2d_cat_multi_stim_exp1","2022-4-5","16:11:5","25","75","3","9","10","40","30","120","15","20","[""Prefer not to say""]","Yes","Female","2267589","null","null","learn_feedback","","","learn_feedback","25","75","in","","","","","","","","","","","","","","","","","","","","","","",""
"","","","","","canvas-keyboard-response","281","496055","0.0-12.0-4.53","2d_cat_multi_stim_exp1","2022-4-5","16:11:5","25","75","3","9","10","40","30","120","15","20","[""Prefer not to say""]","Yes","Female","2267589","null","null","","","","clear_screen","","","","","","","","","","","","","","","","","","","","","","","","","",""
"","","","","","canvas-keyboard-response","282","496563","0.0-12.0-0.54","2d_cat_multi_stim_exp1","2022-4-5","16:11:5","25","75","3","9","10","40","30","120","15","20","[""Prefer not to say""]","Yes","Female","2267589","null","null","","","","fixation","","","","","","","","","","","","","","","","","","","","","","","","","",""
"","","","","","canvas-keyboard-response","283","497071","0.0-12.0-1.54","2d_cat_multi_stim_exp1","2022-4-5","16:11:5","25","75","3","9","10","40","30","120","15","20","[""Prefer not to say""]","Yes","Female","2267589","null","null","","","","clear_screen","","","","","","","","","","","","","","","","","","","","","","","","","",""
"","","","","","canvas-keyboard-response","284","497978","0.0-12.0-2.54","2d_cat_multi_stim_exp1","2022-4-5","16:11:5","25","75","3","9","10","40","30","120","15","20","[""Prefer not to say""]","Yes","Female","2267589","898","i","learn","","","learn_trial","25.4027","66.0815","in","0","0","","","","","","","","","","","","","","","","","","","","",""
"","","","","","canvas-keyboard-response","285","498988","0.0-12.0-3.54","2d_cat_multi_stim_exp1","2022-4-5","16:11:5","25","75","3","9","10","40","30","120","15","20","[""Prefer not to say""]","Yes","Female","2267589","null","null","learn_feedback","","","learn_feedback","25.4027","66.0815","in","","","","","","","","","","","","","","","","","","","","","","",""
"","","","","","canvas-keyboard-response","286","499046","0.0-12.0-4.54","2d_cat_multi_stim_exp1","2022-4-5","16:11:5","25","75","3","9","10","40","30","120","15","20","[""Prefer not to say""]","Yes","Female","2267589","null","null","","","","clear_screen","","","","","","","","","","","","","","","","","","","","","","","","","",""
