"success","timeout","failed_images","failed_audio","failed_video","trial_type","trial_index","time_elapsed","internal_node_id","exp_name","date","time","angle_mean_in","radius_mean_in","angle_sd_in","radius_sd_in","angle_min_out","angle_max_out","radius_min_out","radius_max_out","sub_n","age","race","ethnicity","gender","exp_duration","rt","response","exp_trial_type","stimulus","view_history","screen_id","angle","radius","distribution","choice","correct","order","angle_a","radius_a","angle_b","radius_b","angle_c","radius_c","jkl_correct","transfer_trial_type","choice_set","abc_correct","tc_correct","tc_angle","tdc_a","tdc_b","tdc_c","pair","category_a","category_b","category_c","question_order"
"true","false","[]","[]","[]","preload","0","17","0.0-0.0","2d_cat_multi_stim_exp1","2022-4-20","11:19:38","25","75","3","9","10","40","30","120","49","21","[""Asian""]","No","Male","1858119","","","","","","","","","","","","","","","","","","","","","","","","","","","","","","","",""
"","","","","","survey-html-form","1","2327","0.0-1.0","2d_cat_multi_stim_exp1","2022-4-20","11:19:38","25","75","3","9","10","40","30","120","49","21","[""Asian""]","No","Male","1858119","2294","{""response"":""49""}","enter-sub-number","","","","","","","","","","","","","","","","","","","","","","","","","","","","",""
"true","","","","","fullscreen","2","4764","0.0-2.0","2d_cat_multi_stim_exp1","2022-4-20","11:19:38","25","75","3","9","10","40","30","120","49","21","[""Asian""]","No","Male","1858119","","","","","","","","","","","","","","","","","","","","","","","","","","","","","","","",""
"","","","","","image-button-response","3","331538","0.0-3.0","2d_cat_multi_stim_exp1","2022-4-20","11:19:38","25","75","3","9","10","40","30","120","49","21","[""Asian""]","No","Male","1858119","326766","0","","consent.png","","","","","","","","","","","","","","","","","","","","","","","","","","","",""
"","","","","","html-button-response","4","339402","0.0-4.0","2d_cat_multi_stim_exp1","2022-4-20","11:19:38","25","75","3","9","10","40","30","120","49","21","[""Asian""]","No","Male","1858119","7859","0","","<div style= ""font-size:25px;"" <p> <strong> Welcome to the experiment! </strong><br> <p style=""color:#8B0000; font-size:25px;""><strong> Please do NOT exit full screen until you are done with the experiment. </strong> </p><p style=""font-size:25px;color:#8B0000;""> <strong> The experiment will be canceled and your data will be lost <br> if you try to go back or refresh the page at any point during the experiment.</strong> </p><br><p> <strong> Thanks in advance for your contribution to our research! </strong></p>","","","","","","","","","","","","","","","","","","","","","","","","","","","",""
"","","","","","instructions","5","408164","0.0-5.0","2d_cat_multi_stim_exp1","2022-4-20","11:19:38","25","75","3","9","10","40","30","120","49","21","[""Asian""]","No","Male","1858119","68756","","","","[{""page_index"":0,""viewing_time"":8907},{""page_index"":1,""viewing_time"":3296},{""page_index"":0,""viewing_time"":2710},{""page_index"":1,""viewing_time"":3451},{""page_index"":2,""viewing_time"":11935},{""page_index"":3,""viewing_time"":38456}]","instructions_1","","","","","","","","","","","","","","","","","","","","","","","","","",""
"","","","","","instructions","6","410530","0.0-6.0","2d_cat_multi_stim_exp1","2022-4-20","11:19:38","25","75","3","9","10","40","30","120","49","21","[""Asian""]","No","Male","1858119","2364","","","","[{""page_index"":0,""viewing_time"":2364}]","Click to see the kinds of turtles that will appear in the study.","","","","","","","","","","","","","","","","","","","","","","","","","",""
"","","","","","canvas-keyboard-response","7","425546","0.0-7.0","2d_cat_multi_stim_exp1","2022-4-20","11:19:38","25","75","3","9","10","40","30","120","49","21","[""Asian""]","No","Male","1858119","null","null","","","","demo_range","","","","","","","","","","","","","","","","","","","","","","","","","",""
"","","","","","instructions","8","427443","0.0-8.0","2d_cat_multi_stim_exp1","2022-4-20","11:19:38","25","75","3","9","10","40","30","120","49","21","[""Asian""]","No","Male","1858119","1395","","","","[{""page_index"":0,""viewing_time"":1395}]","Click to see some turtles in the subspecies.","","","","","","","","","","","","","","","","","","","","","","","","","",""
"","","","","","canvas-keyboard-response","9","442460","0.0-9.0","2d_cat_multi_stim_exp1","2022-4-20","11:19:38","25","75","3","9","10","40","30","120","49","21","[""Asian""]","No","Male","1858119","null","null","","","","demo_in","","","","","","","","","","","","","","","","","","","","","","","","","",""
"","","","","","instructions","10","482548","0.0-10.0","2d_cat_multi_stim_exp1","2022-4-20","11:19:38","25","75","3","9","10","40","30","120","49","21","[""Asian""]","No","Male","1858119","39585","","","","[{""page_index"":0,""viewing_time"":10120},{""page_index"":1,""viewing_time"":21384},{""page_index"":2,""viewing_time"":8081}]","instructions_2","","","","","","","","","","","","","","","","","","","","","","","","","",""
"","","","","","instructions","11","483676","0.0-11.0","2d_cat_multi_stim_exp1","2022-4-20","11:19:38","25","75","3","9","10","40","30","120","49","21","[""Asian""]","No","Male","1858119","1125","","","","[{""page_index"":0,""viewing_time"":1125}]","Click to begin the first phase of the experiment.","","","","","","","","","","","","","","","","","","","","","","","","","",""
"","","","","","canvas-keyboard-response","12","484185","0.0-12.0-0.0","2d_cat_multi_stim_exp1","2022-4-20","11:19:38","25","75","3","9","10","40","30","120","49","21","[""Asian""]","No","Male","1858119","null","null","","","","fixation","","","","","","","","","","","","","","","","","","","","","","","","","",""
"","","","","","canvas-keyboard-response","13","484697","0.0-12.0-1.0","2d_cat_multi_stim_exp1","2022-4-20","11:19:38","25","75","3","9","10","40","30","120","49","21","[""Asian""]","No","Male","1858119","null","null","","","","clear_screen","","","","","","","","","","","","","","","","","","","","","","","","","",""
"","","","","","canvas-keyboard-response","14","488963","0.0-12.0-2.0","2d_cat_multi_stim_exp1","2022-4-20","11:19:38","25","75","3","9","10","40","30","120","49","21","[""Asian""]","No","Male","1858119","4258","i","learn","","","learn_trial","16.6667","110","out","0","1","","","","","","","","","","","","","","","","","","","","",""
"","","","","","canvas-keyboard-response","15","489475","0.0-12.0-3.0","2d_cat_multi_stim_exp1","2022-4-20","11:19:38","25","75","3","9","10","40","30","120","49","21","[""Asian""]","No","Male","1858119","null","null","learn_feedback","","","learn_feedback","16.6667","110","out","","","","","","","","","","","","","","","","","","","","","","",""
"","","","","","canvas-keyboard-response","16","489532","0.0-12.0-4.0","2d_cat_multi_stim_exp1","2022-4-20","11:19:38","25","75","3","9","10","40","30","120","49","21","[""Asian""]","No","Male","1858119","null","null","","","","clear_screen","","","","","","","","","","","","","","","","","","","","","","","","","",""
"","","","","","canvas-keyboard-response","17","490042","0.0-12.0-0.1","2d_cat_multi_stim_exp1","2022-4-20","11:19:38","25","75","3","9","10","40","30","120","49","21","[""Asian""]","No","Male","1858119","null","null","","","","fixation","","","","","","","","","","","","","","","","","","","","","","","","","",""
"","","","","","canvas-keyboard-response","18","490551","0.0-12.0-1.1","2d_cat_multi_stim_exp1","2022-4-20","11:19:38","25","75","3","9","10","40","30","120","49","21","[""Asian""]","No","Male","1858119","null","null","","","","clear_screen","","","","","","","","","","","","","","","","","","","","","","","","","",""
"","","","","","canvas-keyboard-response","19","491763","0.0-12.0-2.1","2d_cat_multi_stim_exp1","2022-4-20","11:19:38","25","75","3","9","10","40","30","120","49","21","[""Asian""]","No","Male","1858119","1201","u","learn","","","learn_trial","25","75","in","1","1","","","","","","","","","","","","","","","","","","","","",""
"","","","","","canvas-keyboard-response","20","492271","0.0-12.0-3.1","2d_cat_multi_stim_exp1","2022-4-20","11:19:38","25","75","3","9","10","40","30","120","49","21","[""Asian""]","No","Male","1858119","null","null","learn_feedback","","","learn_feedback","25","75","in","","","","","","","","","","","","","","","","","","","","","","",""
"","","","","","canvas-keyboard-response","21","492334","0.0-12.0-4.1","2d_cat_multi_stim_exp1","2022-4-20","11:19:38","25","75","3","9","10","40","30","120","49","21","[""Asian""]","No","Male","1858119","null","null","","","","clear_screen","","","","","","","","","","","","","","","","","","","","","","","","","",""
"","","","","","canvas-keyboard-response","22","492841","0.0-12.0-0.2","2d_cat_multi_stim_exp1","2022-4-20","11:19:38","25","75","3","9","10","40","30","120","49","21","[""Asian""]","No","Male","1858119","null","null","","","","fixation","","","","","","","","","","","","","","","","","","","","","","","","","",""
"","","","","","canvas-keyboard-response","23","493353","0.0-12.0-1.2","2d_cat_multi_stim_exp1","2022-4-20","11:19:38","25","75","3","9","10","40","30","120","49","21","[""Asian""]","No","Male","1858119","null","null","","","","clear_screen","","","","","","","","","","","","","","","","","","","","","","","","","",""
"","","","","","canvas-keyboard-response","24","494315","0.0-12.0-2.2","2d_cat_multi_stim_exp1","2022-4-20","11:19:38","25","75","3","9","10","40","30","120","49","21","[""Asian""]","No","Male","1858119","951","i","learn","","","learn_trial","33.3333","120","out","0","1","","","","","","","","","","","","","","","","","","","","",""
"","","","","","canvas-keyboard-response","25","494825","0.0-12.0-3.2","2d_cat_multi_stim_exp1","2022-4-20","11:19:38","25","75","3","9","10","40","30","120","49","21","[""Asian""]","No","Male","1858119","null","null","learn_feedback","","","learn_feedback","33.3333","120","out","","","","","","","","","","","","","","","","","","","","","","",""
"","","","","","canvas-keyboard-response","26","494885","0.0-12.0-4.2","2d_cat_multi_stim_exp1","2022-4-20","11:19:38","25","75","3","9","10","40","30","120","49","21","[""Asian""]","No","Male","1858119","null","null","","","","clear_screen","","","","","","","","","","","","","","","","","","","","","","","","","",""
"","","","","","canvas-keyboard-response","27","495396","0.0-12.0-0.3","2d_cat_multi_stim_exp1","2022-4-20","11:19:38","25","75","3","9","10","40","30","120","49","21","[""Asian""]","No","Male","1858119","null","null","","","","fixation","","","","","","","","","","","","","","","","","","","","","","","","","",""
"","","","","","canvas-keyboard-response","28","495906","0.0-12.0-1.3","2d_cat_multi_stim_exp1","2022-4-20","11:19:38","25","75","3","9","10","40","30","120","49","21","[""Asian""]","No","Male","1858119","null","null","","","","clear_screen","","","","","","","","","","","","","","","","","","","","","","","","","",""
"","","","","","canvas-keyboard-response","29","496595","0.0-12.0-2.3","2d_cat_multi_stim_exp1","2022-4-20","11:19:38","25","75","3","9","10","40","30","120","49","21","[""Asian""]","No","Male","1858119","679","i","learn","","","learn_trial","13.3333","110","out","0","1","","","","","","","","","","","","","","","","","","","","",""
"","","","","","canvas-keyboard-response","30","497104","0.0-12.0-3.3","2d_cat_multi_stim_exp1","2022-4-20","11:19:38","25","75","3","9","10","40","30","120","49","21","[""Asian""]","No","Male","1858119","null","null","learn_feedback","","","learn_feedback","13.3333","110","out","","","","","","","","","","","","","","","","","","","","","","",""
"","","","","","canvas-keyboard-response","31","497166","0.0-12.0-4.3","2d_cat_multi_stim_exp1","2022-4-20","11:19:38","25","75","3","9","10","40","30","120","49","21","[""Asian""]","No","Male","1858119","null","null","","","","clear_screen","","","","","","","","","","","","","","","","","","","","","","","","","",""
"","","","","","canvas-keyboard-response","32","497674","0.0-12.0-0.4","2d_cat_multi_stim_exp1","2022-4-20","11:19:38","25","75","3","9","10","40","30","120","49","21","[""Asian""]","No","Male","1858119","null","null","","","","fixation","","","","","","","","","","","","","","","","","","","","","","","","","",""
"","","","","","canvas-keyboard-response","33","498185","0.0-12.0-1.4","2d_cat_multi_stim_exp1","2022-4-20","11:19:38","25","75","3","9","10","40","30","120","49","21","[""Asian""]","No","Male","1858119","null","null","","","","clear_screen","","","","","","","","","","","","","","","","","","","","","","","","","",""
"","","","","","canvas-keyboard-response","34","499203","0.0-12.0-2.4","2d_cat_multi_stim_exp1","2022-4-20","11:19:38","25","75","3","9","10","40","30","120","49","21","[""Asian""]","No","Male","1858119","1008","u","learn","","","learn_trial","25","75","in","1","1","","","","","","","","","","","","","","","","","","","","",""
"","","","","","canvas-keyboard-response","35","499714","0.0-12.0-3.4","2d_cat_multi_stim_exp1","2022-4-20","11:19:38","25","75","3","9","10","40","30","120","49","21","[""Asian""]","No","Male","1858119","null","null","learn_feedback","","","learn_feedback","25","75","in","","","","","","","","","","","","","","","","","","","","","","",""
"","","","","","canvas-keyboard-response","36","499772","0.0-12.0-4.4","2d_cat_multi_stim_exp1","2022-4-20","11:19:38","25","75","3","9","10","40","30","120","49","21","[""Asian""]","No","Male","1858119","null","null","","","","clear_screen","","","","","","","","","","","","","","","","","","","","","","","","","",""
"","","","","","canvas-keyboard-response","37","500282","0.0-12.0-0.5","2d_cat_multi_stim_exp1","2022-4-20","11:19:38","25","75","3","9","10","40","30","120","49","21","[""Asian""]","No","Male","1858119","null","null","","","","fixation","","","","","","","","","","","","","","","","","","","","","","","","","",""
"","","","","","canvas-keyboard-response","38","500796","0.0-12.0-1.5","2d_cat_multi_stim_exp1","2022-4-20","11:19:38","25","75","3","9","10","40","30","120","49","21","[""Asian""]","No","Male","1858119","null","null","","","","clear_screen","","","","","","","","","","","","","","","","","","","","","","","","","",""
"","","","","","canvas-keyboard-response","39","501610","0.0-12.0-2.5","2d_cat_multi_stim_exp1","2022-4-20","11:19:38","25","75","3","9","10","40","30","120","49","21","[""Asian""]","No","Male","1858119","805","u","learn","","","learn_trial","24.8654","66.0091","in","1","1","","","","","","","","","","","","","","","","","","","","",""
"","","","","","canvas-keyboard-response","40","502119","0.0-12.0-3.5","2d_cat_multi_stim_exp1","2022-4-20","11:19:38","25","75","3","9","10","40","30","120","49","21","[""Asian""]","No","Male","1858119","null","null","learn_feedback","","","learn_feedback","24.8654","66.0091","in","","","","","","","","","","","","","","","","","","","","","","",""
"","","","","","canvas-keyboard-response","41","502180","0.0-12.0-4.5","2d_cat_multi_stim_exp1","2022-4-20","11:19:38","25","75","3","9","10","40","30","120","49","21","[""Asian""]","No","Male","1858119","null","null","","","","clear_screen","","","","","","","","","","","","","","","","","","","","","","","","","",""
"","","","","","canvas-keyboard-response","42","502690","0.0-12.0-0.6","2d_cat_multi_stim_exp1","2022-4-20","11:19:38","25","75","3","9","10","40","30","120","49","21","[""Asian""]","No","Male","1858119","null","null","","","","fixation","","","","","","","","","","","","","","","","","","","","","","","","","",""
"","","","","","canvas-keyboard-response","43","503203","0.0-12.0-1.6","2d_cat_multi_stim_exp1","2022-4-20","11:19:38","25","75","3","9","10","40","30","120","49","21","[""Asian""]","No","Male","1858119","null","null","","","","clear_screen","","","","","","","","","","","","","","","","","","","","","","","","","",""
"","","","","","canvas-keyboard-response","44","503810","0.0-12.0-2.6","2d_cat_multi_stim_exp1","2022-4-20","11:19:38","25","75","3","9","10","40","30","120","49","21","[""Asian""]","No","Male","1858119","599","u","learn","","","learn_trial","25","75","in","1","1","","","","","","","","","","","","","","","","","","","","",""
"","","","","","canvas-keyboard-response","45","504320","0.0-12.0-3.6","2d_cat_multi_stim_exp1","2022-4-20","11:19:38","25","75","3","9","10","40","30","120","49","21","[""Asian""]","No","Male","1858119","null","null","learn_feedback","","","learn_feedback","25","75","in","","","","","","","","","","","","","","","","","","","","","","",""
"","","","","","canvas-keyboard-response","46","504383","0.0-12.0-4.6","2d_cat_multi_stim_exp1","2022-4-20","11:19:38","25","75","3","9","10","40","30","120","49","21","[""Asian""]","No","Male","1858119","null","null","","","","clear_screen","","","","","","","","","","","","","","","","","","","","","","","","","",""
"","","","","","canvas-keyboard-response","47","504892","0.0-12.0-0.7","2d_cat_multi_stim_exp1","2022-4-20","11:19:38","25","75","3","9","10","40","30","120","49","21","[""Asian""]","No","Male","1858119","null","null","","","","fixation","","","","","","","","","","","","","","","","","","","","","","","","","",""
"","","","","","canvas-keyboard-response","48","505405","0.0-12.0-1.7","2d_cat_multi_stim_exp1","2022-4-20","11:19:38","25","75","3","9","10","40","30","120","49","21","[""Asian""]","No","Male","1858119","null","null","","","","clear_screen","","","","","","","","","","","","","","","","","","","","","","","","","",""
"","","","","","canvas-keyboard-response","49","506033","0.0-12.0-2.7","2d_cat_multi_stim_exp1","2022-4-20","11:19:38","25","75","3","9","10","40","30","120","49","21","[""Asian""]","No","Male","1858119","617","i","learn","","","learn_trial","23.3333","30","out","0","1","","","","","","","","","","","","","","","","","","","","",""
"","","","","","canvas-keyboard-response","50","506537","0.0-12.0-3.7","2d_cat_multi_stim_exp1","2022-4-20","11:19:38","25","75","3","9","10","40","30","120","49","21","[""Asian""]","No","Male","1858119","null","null","learn_feedback","","","learn_feedback","23.3333","30","out","","","","","","","","","","","","","","","","","","","","","","",""
"","","","","","canvas-keyboard-response","51","506595","0.0-12.0-4.7","2d_cat_multi_stim_exp1","2022-4-20","11:19:38","25","75","3","9","10","40","30","120","49","21","[""Asian""]","No","Male","1858119","null","null","","","","clear_screen","","","","","","","","","","","","","","","","","","","","","","","","","",""
"","","","","","canvas-keyboard-response","52","507106","0.0-12.0-0.8","2d_cat_multi_stim_exp1","2022-4-20","11:19:38","25","75","3","9","10","40","30","120","49","21","[""Asian""]","No","Male","1858119","null","null","","","","fixation","","","","","","","","","","","","","","","","","","","","","","","","","",""
"","","","","","canvas-keyboard-response","53","507615","0.0-12.0-1.8","2d_cat_multi_stim_exp1","2022-4-20","11:19:38","25","75","3","9","10","40","30","120","49","21","[""Asian""]","No","Male","1858119","null","null","","","","clear_screen","","","","","","","","","","","","","","","","","","","","","","","","","",""
"","","","","","canvas-keyboard-response","54","508434","0.0-12.0-2.8","2d_cat_multi_stim_exp1","2022-4-20","11:19:38","25","75","3","9","10","40","30","120","49","21","[""Asian""]","No","Male","1858119","810","i","learn","","","learn_trial","13.3333","70","out","0","1","","","","","","","","","","","","","","","","","","","","",""
"","","","","","canvas-keyboard-response","55","508944","0.0-12.0-3.8","2d_cat_multi_stim_exp1","2022-4-20","11:19:38","25","75","3","9","10","40","30","120","49","21","[""Asian""]","No","Male","1858119","null","null","learn_feedback","","","learn_feedback","13.3333","70","out","","","","","","","","","","","","","","","","","","","","","","",""
"","","","","","canvas-keyboard-response","56","509003","0.0-12.0-4.8","2d_cat_multi_stim_exp1","2022-4-20","11:19:38","25","75","3","9","10","40","30","120","49","21","[""Asian""]","No","Male","1858119","null","null","","","","clear_screen","","","","","","","","","","","","","","","","","","","","","","","","","",""
"","","","","","canvas-keyboard-response","57","509511","0.0-12.0-0.9","2d_cat_multi_stim_exp1","2022-4-20","11:19:38","25","75","3","9","10","40","30","120","49","21","[""Asian""]","No","Male","1858119","null","null","","","","fixation","","","","","","","","","","","","","","","","","","","","","","","","","",""
"","","","","","canvas-keyboard-response","58","510020","0.0-12.0-1.9","2d_cat_multi_stim_exp1","2022-4-20","11:19:38","25","75","3","9","10","40","30","120","49","21","[""Asian""]","No","Male","1858119","null","null","","","","clear_screen","","","","","","","","","","","","","","","","","","","","","","","","","",""
"","","","","","canvas-keyboard-response","59","510771","0.0-12.0-2.9","2d_cat_multi_stim_exp1","2022-4-20","11:19:38","25","75","3","9","10","40","30","120","49","21","[""Asian""]","No","Male","1858119","738","u","learn","","","learn_trial","23.3333","60","out","1","0","","","","","","","","","","","","","","","","","","","","",""
"","","","","","canvas-keyboard-response","60","511779","0.0-12.0-3.9","2d_cat_multi_stim_exp1","2022-4-20","11:19:38","25","75","3","9","10","40","30","120","49","21","[""Asian""]","No","Male","1858119","null","null","learn_feedback","","","learn_feedback","23.3333","60","out","","","","","","","","","","","","","","","","","","","","","","",""
"","","","","","canvas-keyboard-response","61","511833","0.0-12.0-4.9","2d_cat_multi_stim_exp1","2022-4-20","11:19:38","25","75","3","9","10","40","30","120","49","21","[""Asian""]","No","Male","1858119","null","null","","","","clear_screen","","","","","","","","","","","","","","","","","","","","","","","","","",""
"","","","","","canvas-keyboard-response","62","512343","0.0-12.0-0.10","2d_cat_multi_stim_exp1","2022-4-20","11:19:38","25","75","3","9","10","40","30","120","49","21","[""Asian""]","No","Male","1858119","null","null","","","","fixation","","","","","","","","","","","","","","","","","","","","","","","","","",""
"","","","","","canvas-keyboard-response","63","512854","0.0-12.0-1.10","2d_cat_multi_stim_exp1","2022-4-20","11:19:38","25","75","3","9","10","40","30","120","49","21","[""Asian""]","No","Male","1858119","null","null","","","","clear_screen","","","","","","","","","","","","","","","","","","","","","","","","","",""
"","","","","","canvas-keyboard-response","64","513803","0.0-12.0-2.10","2d_cat_multi_stim_exp1","2022-4-20","11:19:38","25","75","3","9","10","40","30","120","49","21","[""Asian""]","No","Male","1858119","938","i","learn","","","learn_trial","23.3333","100","out","0","1","","","","","","","","","","","","","","","","","","","","",""
"","","","","","canvas-keyboard-response","65","514312","0.0-12.0-3.10","2d_cat_multi_stim_exp1","2022-4-20","11:19:38","25","75","3","9","10","40","30","120","49","21","[""Asian""]","No","Male","1858119","null","null","learn_feedback","","","learn_feedback","23.3333","100","out","","","","","","","","","","","","","","","","","","","","","","",""
"","","","","","canvas-keyboard-response","66","514376","0.0-12.0-4.10","2d_cat_multi_stim_exp1","2022-4-20","11:19:38","25","75","3","9","10","40","30","120","49","21","[""Asian""]","No","Male","1858119","null","null","","","","clear_screen","","","","","","","","","","","","","","","","","","","","","","","","","",""
"","","","","","canvas-keyboard-response","67","514883","0.0-12.0-0.11","2d_cat_multi_stim_exp1","2022-4-20","11:19:38","25","75","3","9","10","40","30","120","49","21","[""Asian""]","No","Male","1858119","null","null","","","","fixation","","","","","","","","","","","","","","","","","","","","","","","","","",""
"","","","","","canvas-keyboard-response","68","515393","0.0-12.0-1.11","2d_cat_multi_stim_exp1","2022-4-20","11:19:38","25","75","3","9","10","40","30","120","49","21","[""Asian""]","No","Male","1858119","null","null","","","","clear_screen","","","","","","","","","","","","","","","","","","","","","","","","","",""
"","","","","","canvas-keyboard-response","69","516266","0.0-12.0-2.11","2d_cat_multi_stim_exp1","2022-4-20","11:19:38","25","75","3","9","10","40","30","120","49","21","[""Asian""]","No","Male","1858119","864","u","learn","","","learn_trial","25","75","in","1","1","","","","","","","","","","","","","","","","","","","","",""
"","","","","","canvas-keyboard-response","70","516778","0.0-12.0-3.11","2d_cat_multi_stim_exp1","2022-4-20","11:19:38","25","75","3","9","10","40","30","120","49","21","[""Asian""]","No","Male","1858119","null","null","learn_feedback","","","learn_feedback","25","75","in","","","","","","","","","","","","","","","","","","","","","","",""
"","","","","","canvas-keyboard-response","71","516841","0.0-12.0-4.11","2d_cat_multi_stim_exp1","2022-4-20","11:19:38","25","75","3","9","10","40","30","120","49","21","[""Asian""]","No","Male","1858119","null","null","","","","clear_screen","","","","","","","","","","","","","","","","","","","","","","","","","",""
"","","","","","canvas-keyboard-response","72","517348","0.0-12.0-0.12","2d_cat_multi_stim_exp1","2022-4-20","11:19:38","25","75","3","9","10","40","30","120","49","21","[""Asian""]","No","Male","1858119","null","null","","","","fixation","","","","","","","","","","","","","","","","","","","","","","","","","",""
"","","","","","canvas-keyboard-response","73","517856","0.0-12.0-1.12","2d_cat_multi_stim_exp1","2022-4-20","11:19:38","25","75","3","9","10","40","30","120","49","21","[""Asian""]","No","Male","1858119","null","null","","","","clear_screen","","","","","","","","","","","","","","","","","","","","","","","","","",""
"","","","","","canvas-keyboard-response","74","518634","0.0-12.0-2.12","2d_cat_multi_stim_exp1","2022-4-20","11:19:38","25","75","3","9","10","40","30","120","49","21","[""Asian""]","No","Male","1858119","767","i","learn","","","learn_trial","23.3333","90","out","0","1","","","","","","","","","","","","","","","","","","","","",""
"","","","","","canvas-keyboard-response","75","519147","0.0-12.0-3.12","2d_cat_multi_stim_exp1","2022-4-20","11:19:38","25","75","3","9","10","40","30","120","49","21","[""Asian""]","No","Male","1858119","null","null","learn_feedback","","","learn_feedback","23.3333","90","out","","","","","","","","","","","","","","","","","","","","","","",""
"","","","","","canvas-keyboard-response","76","519207","0.0-12.0-4.12","2d_cat_multi_stim_exp1","2022-4-20","11:19:38","25","75","3","9","10","40","30","120","49","21","[""Asian""]","No","Male","1858119","null","null","","","","clear_screen","","","","","","","","","","","","","","","","","","","","","","","","","",""
"","","","","","canvas-keyboard-response","77","519714","0.0-12.0-0.13","2d_cat_multi_stim_exp1","2022-4-20","11:19:38","25","75","3","9","10","40","30","120","49","21","[""Asian""]","No","Male","1858119","null","null","","","","fixation","","","","","","","","","","","","","","","","","","","","","","","","","",""
"","","","","","canvas-keyboard-response","78","520225","0.0-12.0-1.13","2d_cat_multi_stim_exp1","2022-4-20","11:19:38","25","75","3","9","10","40","30","120","49","21","[""Asian""]","No","Male","1858119","null","null","","","","clear_screen","","","","","","","","","","","","","","","","","","","","","","","","","",""
"","","","","","canvas-keyboard-response","79","521171","0.0-12.0-2.13","2d_cat_multi_stim_exp1","2022-4-20","11:19:38","25","75","3","9","10","40","30","120","49","21","[""Asian""]","No","Male","1858119","934","i","learn","","","learn_trial","36.6667","120","out","0","1","","","","","","","","","","","","","","","","","","","","",""
"","","","","","canvas-keyboard-response","80","521679","0.0-12.0-3.13","2d_cat_multi_stim_exp1","2022-4-20","11:19:38","25","75","3","9","10","40","30","120","49","21","[""Asian""]","No","Male","1858119","null","null","learn_feedback","","","learn_feedback","36.6667","120","out","","","","","","","","","","","","","","","","","","","","","","",""
"","","","","","canvas-keyboard-response","81","521741","0.0-12.0-4.13","2d_cat_multi_stim_exp1","2022-4-20","11:19:38","25","75","3","9","10","40","30","120","49","21","[""Asian""]","No","Male","1858119","null","null","","","","clear_screen","","","","","","","","","","","","","","","","","","","","","","","","","",""
"","","","","","canvas-keyboard-response","82","522249","0.0-12.0-0.14","2d_cat_multi_stim_exp1","2022-4-20","11:19:38","25","75","3","9","10","40","30","120","49","21","[""Asian""]","No","Male","1858119","null","null","","","","fixation","","","","","","","","","","","","","","","","","","","","","","","","","",""
"","","","","","canvas-keyboard-response","83","522763","0.0-12.0-1.14","2d_cat_multi_stim_exp1","2022-4-20","11:19:38","25","75","3","9","10","40","30","120","49","21","[""Asian""]","No","Male","1858119","null","null","","","","clear_screen","","","","","","","","","","","","","","","","","","","","","","","","","",""
"","","","","","canvas-keyboard-response","84","523601","0.0-12.0-2.14","2d_cat_multi_stim_exp1","2022-4-20","11:19:38","25","75","3","9","10","40","30","120","49","21","[""Asian""]","No","Male","1858119","828","i","learn","","","learn_trial","20","120","out","0","1","","","","","","","","","","","","","","","","","","","","",""
"","","","","","canvas-keyboard-response","85","524110","0.0-12.0-3.14","2d_cat_multi_stim_exp1","2022-4-20","11:19:38","25","75","3","9","10","40","30","120","49","21","[""Asian""]","No","Male","1858119","null","null","learn_feedback","","","learn_feedback","20","120","out","","","","","","","","","","","","","","","","","","","","","","",""
"","","","","","canvas-keyboard-response","86","524169","0.0-12.0-4.14","2d_cat_multi_stim_exp1","2022-4-20","11:19:38","25","75","3","9","10","40","30","120","49","21","[""Asian""]","No","Male","1858119","null","null","","","","clear_screen","","","","","","","","","","","","","","","","","","","","","","","","","",""
"","","","","","canvas-keyboard-response","87","524678","0.0-12.0-0.15","2d_cat_multi_stim_exp1","2022-4-20","11:19:38","25","75","3","9","10","40","30","120","49","21","[""Asian""]","No","Male","1858119","null","null","","","","fixation","","","","","","","","","","","","","","","","","","","","","","","","","",""
"","","","","","canvas-keyboard-response","88","525191","0.0-12.0-1.15","2d_cat_multi_stim_exp1","2022-4-20","11:19:38","25","75","3","9","10","40","30","120","49","21","[""Asian""]","No","Male","1858119","null","null","","","","clear_screen","","","","","","","","","","","","","","","","","","","","","","","","","",""
"","","","","","canvas-keyboard-response","89","525946","0.0-12.0-2.15","2d_cat_multi_stim_exp1","2022-4-20","11:19:38","25","75","3","9","10","40","30","120","49","21","[""Asian""]","No","Male","1858119","746","u","learn","","","learn_trial","36.6667","70","out","1","0","","","","","","","","","","","","","","","","","","","","",""
"","","","","","canvas-keyboard-response","90","526959","0.0-12.0-3.15","2d_cat_multi_stim_exp1","2022-4-20","11:19:38","25","75","3","9","10","40","30","120","49","21","[""Asian""]","No","Male","1858119","null","null","learn_feedback","","","learn_feedback","36.6667","70","out","","","","","","","","","","","","","","","","","","","","","","",""
"","","","","","canvas-keyboard-response","91","527018","0.0-12.0-4.15","2d_cat_multi_stim_exp1","2022-4-20","11:19:38","25","75","3","9","10","40","30","120","49","21","[""Asian""]","No","Male","1858119","null","null","","","","clear_screen","","","","","","","","","","","","","","","","","","","","","","","","","",""
"","","","","","canvas-keyboard-response","92","527525","0.0-12.0-0.16","2d_cat_multi_stim_exp1","2022-4-20","11:19:38","25","75","3","9","10","40","30","120","49","21","[""Asian""]","No","Male","1858119","null","null","","","","fixation","","","","","","","","","","","","","","","","","","","","","","","","","",""
"","","","","","canvas-keyboard-response","93","528037","0.0-12.0-1.16","2d_cat_multi_stim_exp1","2022-4-20","11:19:38","25","75","3","9","10","40","30","120","49","21","[""Asian""]","No","Male","1858119","null","null","","","","clear_screen","","","","","","","","","","","","","","","","","","","","","","","","","",""
"","","","","","canvas-keyboard-response","94","528732","0.0-12.0-2.16","2d_cat_multi_stim_exp1","2022-4-20","11:19:38","25","75","3","9","10","40","30","120","49","21","[""Asian""]","No","Male","1858119","684","i","learn","","","learn_trial","23.8209","66.7243","in","0","0","","","","","","","","","","","","","","","","","","","","",""
"","","","","","canvas-keyboard-response","95","529743","0.0-12.0-3.16","2d_cat_multi_stim_exp1","2022-4-20","11:19:38","25","75","3","9","10","40","30","120","49","21","[""Asian""]","No","Male","1858119","null","null","learn_feedback","","","learn_feedback","23.8209","66.7243","in","","","","","","","","","","","","","","","","","","","","","","",""
"","","","","","canvas-keyboard-response","96","529803","0.0-12.0-4.16","2d_cat_multi_stim_exp1","2022-4-20","11:19:38","25","75","3","9","10","40","30","120","49","21","[""Asian""]","No","Male","1858119","null","null","","","","clear_screen","","","","","","","","","","","","","","","","","","","","","","","","","",""
"","","","","","canvas-keyboard-response","97","530315","0.0-12.0-0.17","2d_cat_multi_stim_exp1","2022-4-20","11:19:38","25","75","3","9","10","40","30","120","49","21","[""Asian""]","No","Male","1858119","null","null","","","","fixation","","","","","","","","","","","","","","","","","","","","","","","","","",""
"","","","","","canvas-keyboard-response","98","530829","0.0-12.0-1.17","2d_cat_multi_stim_exp1","2022-4-20","11:19:38","25","75","3","9","10","40","30","120","49","21","[""Asian""]","No","Male","1858119","null","null","","","","clear_screen","","","","","","","","","","","","","","","","","","","","","","","","","",""
"","","","","","canvas-keyboard-response","99","531314","0.0-12.0-2.17","2d_cat_multi_stim_exp1","2022-4-20","11:19:38","25","75","3","9","10","40","30","120","49","21","[""Asian""]","No","Male","1858119","475","i","learn","","","learn_trial","29.2426","87.7279","in","0","0","","","","","","","","","","","","","","","","","","","","",""
"","","","","","canvas-keyboard-response","100","532325","0.0-12.0-3.17","2d_cat_multi_stim_exp1","2022-4-20","11:19:38","25","75","3","9","10","40","30","120","49","21","[""Asian""]","No","Male","1858119","null","null","learn_feedback","","","learn_feedback","29.2426","87.7279","in","","","","","","","","","","","","","","","","","","","","","","",""
"","","","","","canvas-keyboard-response","101","532388","0.0-12.0-4.17","2d_cat_multi_stim_exp1","2022-4-20","11:19:38","25","75","3","9","10","40","30","120","49","21","[""Asian""]","No","Male","1858119","null","null","","","","clear_screen","","","","","","","","","","","","","","","","","","","","","","","","","",""
"","","","","","canvas-keyboard-response","102","532899","0.0-12.0-0.18","2d_cat_multi_stim_exp1","2022-4-20","11:19:38","25","75","3","9","10","40","30","120","49","21","[""Asian""]","No","Male","1858119","null","null","","","","fixation","","","","","","","","","","","","","","","","","","","","","","","","","",""
"","","","","","canvas-keyboard-response","103","533412","0.0-12.0-1.18","2d_cat_multi_stim_exp1","2022-4-20","11:19:38","25","75","3","9","10","40","30","120","49","21","[""Asian""]","No","Male","1858119","null","null","","","","clear_screen","","","","","","","","","","","","","","","","","","","","","","","","","",""
"","","","","","canvas-keyboard-response","104","534395","0.0-12.0-2.18","2d_cat_multi_stim_exp1","2022-4-20","11:19:38","25","75","3","9","10","40","30","120","49","21","[""Asian""]","No","Male","1858119","974","u","learn","","","learn_trial","23.3473","67.4888","in","1","1","","","","","","","","","","","","","","","","","","","","",""
"","","","","","canvas-keyboard-response","105","534905","0.0-12.0-3.18","2d_cat_multi_stim_exp1","2022-4-20","11:19:38","25","75","3","9","10","40","30","120","49","21","[""Asian""]","No","Male","1858119","null","null","learn_feedback","","","learn_feedback","23.3473","67.4888","in","","","","","","","","","","","","","","","","","","","","","","",""
"","","","","","canvas-keyboard-response","106","534968","0.0-12.0-4.18","2d_cat_multi_stim_exp1","2022-4-20","11:19:38","25","75","3","9","10","40","30","120","49","21","[""Asian""]","No","Male","1858119","null","null","","","","clear_screen","","","","","","","","","","","","","","","","","","","","","","","","","",""
"","","","","","canvas-keyboard-response","107","535480","0.0-12.0-0.19","2d_cat_multi_stim_exp1","2022-4-20","11:19:38","25","75","3","9","10","40","30","120","49","21","[""Asian""]","No","Male","1858119","null","null","","","","fixation","","","","","","","","","","","","","","","","","","","","","","","","","",""
"","","","","","canvas-keyboard-response","108","535990","0.0-12.0-1.19","2d_cat_multi_stim_exp1","2022-4-20","11:19:38","25","75","3","9","10","40","30","120","49","21","[""Asian""]","No","Male","1858119","null","null","","","","clear_screen","","","","","","","","","","","","","","","","","","","","","","","","","",""
"","","","","","canvas-keyboard-response","109","536731","0.0-12.0-2.19","2d_cat_multi_stim_exp1","2022-4-20","11:19:38","25","75","3","9","10","40","30","120","49","21","[""Asian""]","No","Male","1858119","728","u","learn","","","learn_trial","25","75","in","1","1","","","","","","","","","","","","","","","","","","","","",""
"","","","","","canvas-keyboard-response","110","537239","0.0-12.0-3.19","2d_cat_multi_stim_exp1","2022-4-20","11:19:38","25","75","3","9","10","40","30","120","49","21","[""Asian""]","No","Male","1858119","null","null","learn_feedback","","","learn_feedback","25","75","in","","","","","","","","","","","","","","","","","","","","","","",""
"","","","","","canvas-keyboard-response","111","537301","0.0-12.0-4.19","2d_cat_multi_stim_exp1","2022-4-20","11:19:38","25","75","3","9","10","40","30","120","49","21","[""Asian""]","No","Male","1858119","null","null","","","","clear_screen","","","","","","","","","","","","","","","","","","","","","","","","","",""
"","","","","","canvas-keyboard-response","112","537811","0.0-12.0-0.20","2d_cat_multi_stim_exp1","2022-4-20","11:19:38","25","75","3","9","10","40","30","120","49","21","[""Asian""]","No","Male","1858119","null","null","","","","fixation","","","","","","","","","","","","","","","","","","","","","","","","","",""
"","","","","","canvas-keyboard-response","113","538320","0.0-12.0-1.20","2d_cat_multi_stim_exp1","2022-4-20","11:19:38","25","75","3","9","10","40","30","120","49","21","[""Asian""]","No","Male","1858119","null","null","","","","clear_screen","","","","","","","","","","","","","","","","","","","","","","","","","",""
"","","","","","canvas-keyboard-response","114","538804","0.0-12.0-2.20","2d_cat_multi_stim_exp1","2022-4-20","11:19:38","25","75","3","9","10","40","30","120","49","21","[""Asian""]","No","Male","1858119","472","u","learn","","","learn_trial","25","75","in","1","1","","","","","","","","","","","","","","","","","","","","",""
"","","","","","canvas-keyboard-response","115","539312","0.0-12.0-3.20","2d_cat_multi_stim_exp1","2022-4-20","11:19:38","25","75","3","9","10","40","30","120","49","21","[""Asian""]","No","Male","1858119","null","null","learn_feedback","","","learn_feedback","25","75","in","","","","","","","","","","","","","","","","","","","","","","",""
"","","","","","canvas-keyboard-response","116","539373","0.0-12.0-4.20","2d_cat_multi_stim_exp1","2022-4-20","11:19:38","25","75","3","9","10","40","30","120","49","21","[""Asian""]","No","Male","1858119","null","null","","","","clear_screen","","","","","","","","","","","","","","","","","","","","","","","","","",""
"","","","","","canvas-keyboard-response","117","539882","0.0-12.0-0.21","2d_cat_multi_stim_exp1","2022-4-20","11:19:38","25","75","3","9","10","40","30","120","49","21","[""Asian""]","No","Male","1858119","null","null","","","","fixation","","","","","","","","","","","","","","","","","","","","","","","","","",""
"","","","","","canvas-keyboard-response","118","540394","0.0-12.0-1.21","2d_cat_multi_stim_exp1","2022-4-20","11:19:38","25","75","3","9","10","40","30","120","49","21","[""Asian""]","No","Male","1858119","null","null","","","","clear_screen","","","","","","","","","","","","","","","","","","","","","","","","","",""
"","","","","","canvas-keyboard-response","119","541041","0.0-12.0-2.21","2d_cat_multi_stim_exp1","2022-4-20","11:19:38","25","75","3","9","10","40","30","120","49","21","[""Asian""]","No","Male","1858119","639","u","learn","","","learn_trial","22.2971","71.095","in","1","1","","","","","","","","","","","","","","","","","","","","",""
"","","","","","canvas-keyboard-response","120","541552","0.0-12.0-3.21","2d_cat_multi_stim_exp1","2022-4-20","11:19:38","25","75","3","9","10","40","30","120","49","21","[""Asian""]","No","Male","1858119","null","null","learn_feedback","","","learn_feedback","22.2971","71.095","in","","","","","","","","","","","","","","","","","","","","","","",""
"","","","","","canvas-keyboard-response","121","541613","0.0-12.0-4.21","2d_cat_multi_stim_exp1","2022-4-20","11:19:38","25","75","3","9","10","40","30","120","49","21","[""Asian""]","No","Male","1858119","null","null","","","","clear_screen","","","","","","","","","","","","","","","","","","","","","","","","","",""
"","","","","","canvas-keyboard-response","122","542121","0.0-12.0-0.22","2d_cat_multi_stim_exp1","2022-4-20","11:19:38","25","75","3","9","10","40","30","120","49","21","[""Asian""]","No","Male","1858119","null","null","","","","fixation","","","","","","","","","","","","","","","","","","","","","","","","","",""
"","","","","","canvas-keyboard-response","123","542635","0.0-12.0-1.22","2d_cat_multi_stim_exp1","2022-4-20","11:19:38","25","75","3","9","10","40","30","120","49","21","[""Asian""]","No","Male","1858119","null","null","","","","clear_screen","","","","","","","","","","","","","","","","","","","","","","","","","",""
"","","","","","canvas-keyboard-response","124","543250","0.0-12.0-2.22","2d_cat_multi_stim_exp1","2022-4-20","11:19:38","25","75","3","9","10","40","30","120","49","21","[""Asian""]","No","Male","1858119","607","i","learn","","","learn_trial","20.7574","87.7279","in","0","0","","","","","","","","","","","","","","","","","","","","",""
"","","","","","canvas-keyboard-response","125","544260","0.0-12.0-3.22","2d_cat_multi_stim_exp1","2022-4-20","11:19:38","25","75","3","9","10","40","30","120","49","21","[""Asian""]","No","Male","1858119","null","null","learn_feedback","","","learn_feedback","20.7574","87.7279","in","","","","","","","","","","","","","","","","","","","","","","",""
"","","","","","canvas-keyboard-response","126","544323","0.0-12.0-4.22","2d_cat_multi_stim_exp1","2022-4-20","11:19:38","25","75","3","9","10","40","30","120","49","21","[""Asian""]","No","Male","1858119","null","null","","","","clear_screen","","","","","","","","","","","","","","","","","","","","","","","","","",""
"","","","","","canvas-keyboard-response","127","544832","0.0-12.0-0.23","2d_cat_multi_stim_exp1","2022-4-20","11:19:38","25","75","3","9","10","40","30","120","49","21","[""Asian""]","No","Male","1858119","null","null","","","","fixation","","","","","","","","","","","","","","","","","","","","","","","","","",""
"","","","","","canvas-keyboard-response","128","545346","0.0-12.0-1.23","2d_cat_multi_stim_exp1","2022-4-20","11:19:38","25","75","3","9","10","40","30","120","49","21","[""Asian""]","No","Male","1858119","null","null","","","","clear_screen","","","","","","","","","","","","","","","","","","","","","","","","","",""
"","","","","","canvas-keyboard-response","129","545922","0.0-12.0-2.23","2d_cat_multi_stim_exp1","2022-4-20","11:19:38","25","75","3","9","10","40","30","120","49","21","[""Asian""]","No","Male","1858119","568","i","learn","","","learn_trial","40","30","out","0","1","","","","","","","","","","","","","","","","","","","","",""
"","","","","","canvas-keyboard-response","130","546435","0.0-12.0-3.23","2d_cat_multi_stim_exp1","2022-4-20","11:19:38","25","75","3","9","10","40","30","120","49","21","[""Asian""]","No","Male","1858119","null","null","learn_feedback","","","learn_feedback","40","30","out","","","","","","","","","","","","","","","","","","","","","","",""
"","","","","","canvas-keyboard-response","131","546496","0.0-12.0-4.23","2d_cat_multi_stim_exp1","2022-4-20","11:19:38","25","75","3","9","10","40","30","120","49","21","[""Asian""]","No","Male","1858119","null","null","","","","clear_screen","","","","","","","","","","","","","","","","","","","","","","","","","",""
"","","","","","canvas-keyboard-response","132","547006","0.0-12.0-0.24","2d_cat_multi_stim_exp1","2022-4-20","11:19:38","25","75","3","9","10","40","30","120","49","21","[""Asian""]","No","Male","1858119","null","null","","","","fixation","","","","","","","","","","","","","","","","","","","","","","","","","",""
"","","","","","canvas-keyboard-response","133","547519","0.0-12.0-1.24","2d_cat_multi_stim_exp1","2022-4-20","11:19:38","25","75","3","9","10","40","30","120","49","21","[""Asian""]","No","Male","1858119","null","null","","","","clear_screen","","","","","","","","","","","","","","","","","","","","","","","","","",""
"","","","","","canvas-keyboard-response","134","548203","0.0-12.0-2.24","2d_cat_multi_stim_exp1","2022-4-20","11:19:38","25","75","3","9","10","40","30","120","49","21","[""Asian""]","No","Male","1858119","676","i","learn","","","learn_trial","23.3333","120","out","0","1","","","","","","","","","","","","","","","","","","","","",""
"","","","","","canvas-keyboard-response","135","548712","0.0-12.0-3.24","2d_cat_multi_stim_exp1","2022-4-20","11:19:38","25","75","3","9","10","40","30","120","49","21","[""Asian""]","No","Male","1858119","null","null","learn_feedback","","","learn_feedback","23.3333","120","out","","","","","","","","","","","","","","","","","","","","","","",""
"","","","","","canvas-keyboard-response","136","548773","0.0-12.0-4.24","2d_cat_multi_stim_exp1","2022-4-20","11:19:38","25","75","3","9","10","40","30","120","49","21","[""Asian""]","No","Male","1858119","null","null","","","","clear_screen","","","","","","","","","","","","","","","","","","","","","","","","","",""
"","","","","","canvas-keyboard-response","137","549280","0.0-12.0-0.25","2d_cat_multi_stim_exp1","2022-4-20","11:19:38","25","75","3","9","10","40","30","120","49","21","[""Asian""]","No","Male","1858119","null","null","","","","fixation","","","","","","","","","","","","","","","","","","","","","","","","","",""
"","","","","","canvas-keyboard-response","138","549790","0.0-12.0-1.25","2d_cat_multi_stim_exp1","2022-4-20","11:19:38","25","75","3","9","10","40","30","120","49","21","[""Asian""]","No","Male","1858119","null","null","","","","clear_screen","","","","","","","","","","","","","","","","","","","","","","","","","",""
"","","","","","canvas-keyboard-response","139","550546","0.0-12.0-2.25","2d_cat_multi_stim_exp1","2022-4-20","11:19:38","25","75","3","9","10","40","30","120","49","21","[""Asian""]","No","Male","1858119","745","i","learn","","","learn_trial","13.3333","100","out","0","1","","","","","","","","","","","","","","","","","","","","",""
"","","","","","canvas-keyboard-response","140","551057","0.0-12.0-3.25","2d_cat_multi_stim_exp1","2022-4-20","11:19:38","25","75","3","9","10","40","30","120","49","21","[""Asian""]","No","Male","1858119","null","null","learn_feedback","","","learn_feedback","13.3333","100","out","","","","","","","","","","","","","","","","","","","","","","",""
"","","","","","canvas-keyboard-response","141","551113","0.0-12.0-4.25","2d_cat_multi_stim_exp1","2022-4-20","11:19:38","25","75","3","9","10","40","30","120","49","21","[""Asian""]","No","Male","1858119","null","null","","","","clear_screen","","","","","","","","","","","","","","","","","","","","","","","","","",""
"","","","","","canvas-keyboard-response","142","551622","0.0-12.0-0.26","2d_cat_multi_stim_exp1","2022-4-20","11:19:38","25","75","3","9","10","40","30","120","49","21","[""Asian""]","No","Male","1858119","null","null","","","","fixation","","","","","","","","","","","","","","","","","","","","","","","","","",""
"","","","","","canvas-keyboard-response","143","552133","0.0-12.0-1.26","2d_cat_multi_stim_exp1","2022-4-20","11:19:38","25","75","3","9","10","40","30","120","49","21","[""Asian""]","No","Male","1858119","null","null","","","","clear_screen","","","","","","","","","","","","","","","","","","","","","","","","","",""
"","","","","","canvas-keyboard-response","144","552915","0.0-12.0-2.26","2d_cat_multi_stim_exp1","2022-4-20","11:19:38","25","75","3","9","10","40","30","120","49","21","[""Asian""]","No","Male","1858119","771","u","learn","","","learn_trial","25","75","in","1","1","","","","","","","","","","","","","","","","","","","","",""
"","","","","","canvas-keyboard-response","145","553427","0.0-12.0-3.26","2d_cat_multi_stim_exp1","2022-4-20","11:19:38","25","75","3","9","10","40","30","120","49","21","[""Asian""]","No","Male","1858119","null","null","learn_feedback","","","learn_feedback","25","75","in","","","","","","","","","","","","","","","","","","","","","","",""
"","","","","","canvas-keyboard-response","146","553489","0.0-12.0-4.26","2d_cat_multi_stim_exp1","2022-4-20","11:19:38","25","75","3","9","10","40","30","120","49","21","[""Asian""]","No","Male","1858119","null","null","","","","clear_screen","","","","","","","","","","","","","","","","","","","","","","","","","",""
"","","","","","canvas-keyboard-response","147","554000","0.0-12.0-0.27","2d_cat_multi_stim_exp1","2022-4-20","11:19:38","25","75","3","9","10","40","30","120","49","21","[""Asian""]","No","Male","1858119","null","null","","","","fixation","","","","","","","","","","","","","","","","","","","","","","","","","",""
"","","","","","canvas-keyboard-response","148","554510","0.0-12.0-1.27","2d_cat_multi_stim_exp1","2022-4-20","11:19:38","25","75","3","9","10","40","30","120","49","21","[""Asian""]","No","Male","1858119","null","null","","","","clear_screen","","","","","","","","","","","","","","","","","","","","","","","","","",""
"","","","","","canvas-keyboard-response","149","555347","0.0-12.0-2.27","2d_cat_multi_stim_exp1","2022-4-20","11:19:38","25","75","3","9","10","40","30","120","49","21","[""Asian""]","No","Male","1858119","827","u","learn","","","learn_trial","20","60","out","1","0","","","","","","","","","","","","","","","","","","","","",""
"","","","","","canvas-keyboard-response","150","556356","0.0-12.0-3.27","2d_cat_multi_stim_exp1","2022-4-20","11:19:38","25","75","3","9","10","40","30","120","49","21","[""Asian""]","No","Male","1858119","null","null","learn_feedback","","","learn_feedback","20","60","out","","","","","","","","","","","","","","","","","","","","","","",""
"","","","","","canvas-keyboard-response","151","556418","0.0-12.0-4.27","2d_cat_multi_stim_exp1","2022-4-20","11:19:38","25","75","3","9","10","40","30","120","49","21","[""Asian""]","No","Male","1858119","null","null","","","","clear_screen","","","","","","","","","","","","","","","","","","","","","","","","","",""
"","","","","","canvas-keyboard-response","152","556925","0.0-12.0-0.28","2d_cat_multi_stim_exp1","2022-4-20","11:19:38","25","75","3","9","10","40","30","120","49","21","[""Asian""]","No","Male","1858119","null","null","","","","fixation","","","","","","","","","","","","","","","","","","","","","","","","","",""
"","","","","","canvas-keyboard-response","153","557436","0.0-12.0-1.28","2d_cat_multi_stim_exp1","2022-4-20","11:19:38","25","75","3","9","10","40","30","120","49","21","[""Asian""]","No","Male","1858119","null","null","","","","clear_screen","","","","","","","","","","","","","","","","","","","","","","","","","",""
"","","","","","canvas-keyboard-response","154","558002","0.0-12.0-2.28","2d_cat_multi_stim_exp1","2022-4-20","11:19:38","25","75","3","9","10","40","30","120","49","21","[""Asian""]","No","Male","1858119","555","i","learn","","","learn_trial","16.6667","40","out","0","1","","","","","","","","","","","","","","","","","","","","",""
"","","","","","canvas-keyboard-response","155","558511","0.0-12.0-3.28","2d_cat_multi_stim_exp1","2022-4-20","11:19:38","25","75","3","9","10","40","30","120","49","21","[""Asian""]","No","Male","1858119","null","null","learn_feedback","","","learn_feedback","16.6667","40","out","","","","","","","","","","","","","","","","","","","","","","",""
"","","","","","canvas-keyboard-response","156","558571","0.0-12.0-4.28","2d_cat_multi_stim_exp1","2022-4-20","11:19:38","25","75","3","9","10","40","30","120","49","21","[""Asian""]","No","Male","1858119","null","null","","","","clear_screen","","","","","","","","","","","","","","","","","","","","","","","","","",""
"","","","","","canvas-keyboard-response","157","559081","0.0-12.0-0.29","2d_cat_multi_stim_exp1","2022-4-20","11:19:38","25","75","3","9","10","40","30","120","49","21","[""Asian""]","No","Male","1858119","null","null","","","","fixation","","","","","","","","","","","","","","","","","","","","","","","","","",""
"","","","","","canvas-keyboard-response","158","559591","0.0-12.0-1.29","2d_cat_multi_stim_exp1","2022-4-20","11:19:38","25","75","3","9","10","40","30","120","49","21","[""Asian""]","No","Male","1858119","null","null","","","","clear_screen","","","","","","","","","","","","","","","","","","","","","","","","","",""
"","","","","","canvas-keyboard-response","159","560474","0.0-12.0-2.29","2d_cat_multi_stim_exp1","2022-4-20","11:19:38","25","75","3","9","10","40","30","120","49","21","[""Asian""]","No","Male","1858119","872","u","learn","","","learn_trial","19","75","in","1","1","","","","","","","","","","","","","","","","","","","","",""
"","","","","","canvas-keyboard-response","160","560986","0.0-12.0-3.29","2d_cat_multi_stim_exp1","2022-4-20","11:19:38","25","75","3","9","10","40","30","120","49","21","[""Asian""]","No","Male","1858119","null","null","learn_feedback","","","learn_feedback","19","75","in","","","","","","","","","","","","","","","","","","","","","","",""
"","","","","","canvas-keyboard-response","161","561047","0.0-12.0-4.29","2d_cat_multi_stim_exp1","2022-4-20","11:19:38","25","75","3","9","10","40","30","120","49","21","[""Asian""]","No","Male","1858119","null","null","","","","clear_screen","","","","","","","","","","","","","","","","","","","","","","","","","",""
"","","","","","canvas-keyboard-response","162","561559","0.0-12.0-0.30","2d_cat_multi_stim_exp1","2022-4-20","11:19:38","25","75","3","9","10","40","30","120","49","21","[""Asian""]","No","Male","1858119","null","null","","","","fixation","","","","","","","","","","","","","","","","","","","","","","","","","",""
"","","","","","canvas-keyboard-response","163","562071","0.0-12.0-1.30","2d_cat_multi_stim_exp1","2022-4-20","11:19:38","25","75","3","9","10","40","30","120","49","21","[""Asian""]","No","Male","1858119","null","null","","","","clear_screen","","","","","","","","","","","","","","","","","","","","","","","","","",""
"","","","","","canvas-keyboard-response","164","562667","0.0-12.0-2.30","2d_cat_multi_stim_exp1","2022-4-20","11:19:38","25","75","3","9","10","40","30","120","49","21","[""Asian""]","No","Male","1858119","582","i","learn","","","learn_trial","25","75","in","0","0","","","","","","","","","","","","","","","","","","","","",""
"","","","","","canvas-keyboard-response","165","563676","0.0-12.0-3.30","2d_cat_multi_stim_exp1","2022-4-20","11:19:38","25","75","3","9","10","40","30","120","49","21","[""Asian""]","No","Male","1858119","null","null","learn_feedback","","","learn_feedback","25","75","in","","","","","","","","","","","","","","","","","","","","","","",""
"","","","","","canvas-keyboard-response","166","563738","0.0-12.0-4.30","2d_cat_multi_stim_exp1","2022-4-20","11:19:38","25","75","3","9","10","40","30","120","49","21","[""Asian""]","No","Male","1858119","null","null","","","","clear_screen","","","","","","","","","","","","","","","","","","","","","","","","","",""
"","","","","","canvas-keyboard-response","167","564247","0.0-12.0-0.31","2d_cat_multi_stim_exp1","2022-4-20","11:19:38","25","75","3","9","10","40","30","120","49","21","[""Asian""]","No","Male","1858119","null","null","","","","fixation","","","","","","","","","","","","","","","","","","","","","","","","","",""
"","","","","","canvas-keyboard-response","168","564758","0.0-12.0-1.31","2d_cat_multi_stim_exp1","2022-4-20","11:19:38","25","75","3","9","10","40","30","120","49","21","[""Asian""]","No","Male","1858119","null","null","","","","clear_screen","","","","","","","","","","","","","","","","","","","","","","","","","",""
"","","","","","canvas-keyboard-response","169","565354","0.0-12.0-2.31","2d_cat_multi_stim_exp1","2022-4-20","11:19:38","25","75","3","9","10","40","30","120","49","21","[""Asian""]","No","Male","1858119","585","i","learn","","","learn_trial","26.6667","40","out","0","1","","","","","","","","","","","","","","","","","","","","",""
"","","","","","canvas-keyboard-response","170","565866","0.0-12.0-3.31","2d_cat_multi_stim_exp1","2022-4-20","11:19:38","25","75","3","9","10","40","30","120","49","21","[""Asian""]","No","Male","1858119","null","null","learn_feedback","","","learn_feedback","26.6667","40","out","","","","","","","","","","","","","","","","","","","","","","",""
"","","","","","canvas-keyboard-response","171","565927","0.0-12.0-4.31","2d_cat_multi_stim_exp1","2022-4-20","11:19:38","25","75","3","9","10","40","30","120","49","21","[""Asian""]","No","Male","1858119","null","null","","","","clear_screen","","","","","","","","","","","","","","","","","","","","","","","","","",""
"","","","","","canvas-keyboard-response","172","566437","0.0-12.0-0.32","2d_cat_multi_stim_exp1","2022-4-20","11:19:38","25","75","3","9","10","40","30","120","49","21","[""Asian""]","No","Male","1858119","null","null","","","","fixation","","","","","","","","","","","","","","","","","","","","","","","","","",""
"","","","","","canvas-keyboard-response","173","566949","0.0-12.0-1.32","2d_cat_multi_stim_exp1","2022-4-20","11:19:38","25","75","3","9","10","40","30","120","49","21","[""Asian""]","No","Male","1858119","null","null","","","","clear_screen","","","","","","","","","","","","","","","","","","","","","","","","","",""
"","","","","","canvas-keyboard-response","174","568171","0.0-12.0-2.32","2d_cat_multi_stim_exp1","2022-4-20","11:19:38","25","75","3","9","10","40","30","120","49","21","[""Asian""]","No","Male","1858119","1211","i","learn","","","learn_trial","26.6667","100","out","0","1","","","","","","","","","","","","","","","","","","","","",""
"","","","","","canvas-keyboard-response","175","568680","0.0-12.0-3.32","2d_cat_multi_stim_exp1","2022-4-20","11:19:38","25","75","3","9","10","40","30","120","49","21","[""Asian""]","No","Male","1858119","null","null","learn_feedback","","","learn_feedback","26.6667","100","out","","","","","","","","","","","","","","","","","","","","","","",""
"","","","","","canvas-keyboard-response","176","568741","0.0-12.0-4.32","2d_cat_multi_stim_exp1","2022-4-20","11:19:38","25","75","3","9","10","40","30","120","49","21","[""Asian""]","No","Male","1858119","null","null","","","","clear_screen","","","","","","","","","","","","","","","","","","","","","","","","","",""
"","","","","","canvas-keyboard-response","177","569251","0.0-12.0-0.33","2d_cat_multi_stim_exp1","2022-4-20","11:19:38","25","75","3","9","10","40","30","120","49","21","[""Asian""]","No","Male","1858119","null","null","","","","fixation","","","","","","","","","","","","","","","","","","","","","","","","","",""
"","","","","","canvas-keyboard-response","178","569764","0.0-12.0-1.33","2d_cat_multi_stim_exp1","2022-4-20","11:19:38","25","75","3","9","10","40","30","120","49","21","[""Asian""]","No","Male","1858119","null","null","","","","clear_screen","","","","","","","","","","","","","","","","","","","","","","","","","",""
"","","","","","canvas-keyboard-response","179","570547","0.0-12.0-2.33","2d_cat_multi_stim_exp1","2022-4-20","11:19:38","25","75","3","9","10","40","30","120","49","21","[""Asian""]","No","Male","1858119","773","i","learn","","","learn_trial","27.5753","79.6161","in","0","0","","","","","","","","","","","","","","","","","","","","",""
"","","","","","canvas-keyboard-response","180","571558","0.0-12.0-3.33","2d_cat_multi_stim_exp1","2022-4-20","11:19:38","25","75","3","9","10","40","30","120","49","21","[""Asian""]","No","Male","1858119","null","null","learn_feedback","","","learn_feedback","27.5753","79.6161","in","","","","","","","","","","","","","","","","","","","","","","",""
"","","","","","canvas-keyboard-response","181","571617","0.0-12.0-4.33","2d_cat_multi_stim_exp1","2022-4-20","11:19:38","25","75","3","9","10","40","30","120","49","21","[""Asian""]","No","Male","1858119","null","null","","","","clear_screen","","","","","","","","","","","","","","","","","","","","","","","","","",""
"","","","","","canvas-keyboard-response","182","572126","0.0-12.0-0.34","2d_cat_multi_stim_exp1","2022-4-20","11:19:38","25","75","3","9","10","40","30","120","49","21","[""Asian""]","No","Male","1858119","null","null","","","","fixation","","","","","","","","","","","","","","","","","","","","","","","","","",""
"","","","","","canvas-keyboard-response","183","572638","0.0-12.0-1.34","2d_cat_multi_stim_exp1","2022-4-20","11:19:38","25","75","3","9","10","40","30","120","49","21","[""Asian""]","No","Male","1858119","null","null","","","","clear_screen","","","","","","","","","","","","","","","","","","","","","","","","","",""
"","","","","","canvas-keyboard-response","184","573266","0.0-12.0-2.34","2d_cat_multi_stim_exp1","2022-4-20","11:19:38","25","75","3","9","10","40","30","120","49","21","[""Asian""]","No","Male","1858119","620","i","learn","","","learn_trial","10","120","out","0","1","","","","","","","","","","","","","","","","","","","","",""
"","","","","","canvas-keyboard-response","185","573770","0.0-12.0-3.34","2d_cat_multi_stim_exp1","2022-4-20","11:19:38","25","75","3","9","10","40","30","120","49","21","[""Asian""]","No","Male","1858119","null","null","learn_feedback","","","learn_feedback","10","120","out","","","","","","","","","","","","","","","","","","","","","","",""
"","","","","","canvas-keyboard-response","186","573826","0.0-12.0-4.34","2d_cat_multi_stim_exp1","2022-4-20","11:19:38","25","75","3","9","10","40","30","120","49","21","[""Asian""]","No","Male","1858119","null","null","","","","clear_screen","","","","","","","","","","","","","","","","","","","","","","","","","",""
"","","","","","canvas-keyboard-response","187","574337","0.0-12.0-0.35","2d_cat_multi_stim_exp1","2022-4-20","11:19:38","25","75","3","9","10","40","30","120","49","21","[""Asian""]","No","Male","1858119","null","null","","","","fixation","","","","","","","","","","","","","","","","","","","","","","","","","",""
"","","","","","canvas-keyboard-response","188","574846","0.0-12.0-1.35","2d_cat_multi_stim_exp1","2022-4-20","11:19:38","25","75","3","9","10","40","30","120","49","21","[""Asian""]","No","Male","1858119","null","null","","","","clear_screen","","","","","","","","","","","","","","","","","","","","","","","","","",""
"","","","","","canvas-keyboard-response","189","575674","0.0-12.0-2.35","2d_cat_multi_stim_exp1","2022-4-20","11:19:38","25","75","3","9","10","40","30","120","49","21","[""Asian""]","No","Male","1858119","819","u","learn","","","learn_trial","30","90","out","1","0","","","","","","","","","","","","","","","","","","","","",""
"","","","","","canvas-keyboard-response","190","576684","0.0-12.0-3.35","2d_cat_multi_stim_exp1","2022-4-20","11:19:38","25","75","3","9","10","40","30","120","49","21","[""Asian""]","No","Male","1858119","null","null","learn_feedback","","","learn_feedback","30","90","out","","","","","","","","","","","","","","","","","","","","","","",""
"","","","","","canvas-keyboard-response","191","576745","0.0-12.0-4.35","2d_cat_multi_stim_exp1","2022-4-20","11:19:38","25","75","3","9","10","40","30","120","49","21","[""Asian""]","No","Male","1858119","null","null","","","","clear_screen","","","","","","","","","","","","","","","","","","","","","","","","","",""
"","","","","","canvas-keyboard-response","192","577253","0.0-12.0-0.36","2d_cat_multi_stim_exp1","2022-4-20","11:19:38","25","75","3","9","10","40","30","120","49","21","[""Asian""]","No","Male","1858119","null","null","","","","fixation","","","","","","","","","","","","","","","","","","","","","","","","","",""
"","","","","","canvas-keyboard-response","193","577766","0.0-12.0-1.36","2d_cat_multi_stim_exp1","2022-4-20","11:19:38","25","75","3","9","10","40","30","120","49","21","[""Asian""]","No","Male","1858119","null","null","","","","clear_screen","","","","","","","","","","","","","","","","","","","","","","","","","",""
"","","","","","canvas-keyboard-response","194","578667","0.0-12.0-2.36","2d_cat_multi_stim_exp1","2022-4-20","11:19:38","25","75","3","9","10","40","30","120","49","21","[""Asian""]","No","Male","1858119","891","i","learn","","","learn_trial","10","110","out","0","1","","","","","","","","","","","","","","","","","","","","",""
"","","","","","canvas-keyboard-response","195","579175","0.0-12.0-3.36","2d_cat_multi_stim_exp1","2022-4-20","11:19:38","25","75","3","9","10","40","30","120","49","21","[""Asian""]","No","Male","1858119","null","null","learn_feedback","","","learn_feedback","10","110","out","","","","","","","","","","","","","","","","","","","","","","",""
"","","","","","canvas-keyboard-response","196","579236","0.0-12.0-4.36","2d_cat_multi_stim_exp1","2022-4-20","11:19:38","25","75","3","9","10","40","30","120","49","21","[""Asian""]","No","Male","1858119","null","null","","","","clear_screen","","","","","","","","","","","","","","","","","","","","","","","","","",""
"","","","","","canvas-keyboard-response","197","579743","0.0-12.0-0.37","2d_cat_multi_stim_exp1","2022-4-20","11:19:38","25","75","3","9","10","40","30","120","49","21","[""Asian""]","No","Male","1858119","null","null","","","","fixation","","","","","","","","","","","","","","","","","","","","","","","","","",""
"","","","","","canvas-keyboard-response","198","580253","0.0-12.0-1.37","2d_cat_multi_stim_exp1","2022-4-20","11:19:38","25","75","3","9","10","40","30","120","49","21","[""Asian""]","No","Male","1858119","null","null","","","","clear_screen","","","","","","","","","","","","","","","","","","","","","","","","","",""
"","","","","","canvas-keyboard-response","199","581258","0.0-12.0-2.37","2d_cat_multi_stim_exp1","2022-4-20","11:19:38","25","75","3","9","10","40","30","120","49","21","[""Asian""]","No","Male","1858119","997","u","learn","","","learn_trial","25","75","in","1","1","","","","","","","","","","","","","","","","","","","","",""
"","","","","","canvas-keyboard-response","200","581769","0.0-12.0-3.37","2d_cat_multi_stim_exp1","2022-4-20","11:19:38","25","75","3","9","10","40","30","120","49","21","[""Asian""]","No","Male","1858119","null","null","learn_feedback","","","learn_feedback","25","75","in","","","","","","","","","","","","","","","","","","","","","","",""
"","","","","","canvas-keyboard-response","201","581827","0.0-12.0-4.37","2d_cat_multi_stim_exp1","2022-4-20","11:19:38","25","75","3","9","10","40","30","120","49","21","[""Asian""]","No","Male","1858119","null","null","","","","clear_screen","","","","","","","","","","","","","","","","","","","","","","","","","",""
"","","","","","canvas-keyboard-response","202","582337","0.0-12.0-0.38","2d_cat_multi_stim_exp1","2022-4-20","11:19:38","25","75","3","9","10","40","30","120","49","21","[""Asian""]","No","Male","1858119","null","null","","","","fixation","","","","","","","","","","","","","","","","","","","","","","","","","",""
"","","","","","canvas-keyboard-response","203","582845","0.0-12.0-1.38","2d_cat_multi_stim_exp1","2022-4-20","11:19:38","25","75","3","9","10","40","30","120","49","21","[""Asian""]","No","Male","1858119","null","null","","","","clear_screen","","","","","","","","","","","","","","","","","","","","","","","","","",""
"","","","","","canvas-keyboard-response","204","583738","0.0-12.0-2.38","2d_cat_multi_stim_exp1","2022-4-20","11:19:38","25","75","3","9","10","40","30","120","49","21","[""Asian""]","No","Male","1858119","883","u","learn","","","learn_trial","22.1081","72.6057","in","1","1","","","","","","","","","","","","","","","","","","","","",""
"","","","","","canvas-keyboard-response","205","584248","0.0-12.0-3.38","2d_cat_multi_stim_exp1","2022-4-20","11:19:38","25","75","3","9","10","40","30","120","49","21","[""Asian""]","No","Male","1858119","null","null","learn_feedback","","","learn_feedback","22.1081","72.6057","in","","","","","","","","","","","","","","","","","","","","","","",""
"","","","","","canvas-keyboard-response","206","584311","0.0-12.0-4.38","2d_cat_multi_stim_exp1","2022-4-20","11:19:38","25","75","3","9","10","40","30","120","49","21","[""Asian""]","No","Male","1858119","null","null","","","","clear_screen","","","","","","","","","","","","","","","","","","","","","","","","","",""
"","","","","","canvas-keyboard-response","207","584820","0.0-12.0-0.39","2d_cat_multi_stim_exp1","2022-4-20","11:19:38","25","75","3","9","10","40","30","120","49","21","[""Asian""]","No","Male","1858119","null","null","","","","fixation","","","","","","","","","","","","","","","","","","","","","","","","","",""
"","","","","","canvas-keyboard-response","208","585330","0.0-12.0-1.39","2d_cat_multi_stim_exp1","2022-4-20","11:19:38","25","75","3","9","10","40","30","120","49","21","[""Asian""]","No","Male","1858119","null","null","","","","clear_screen","","","","","","","","","","","","","","","","","","","","","","","","","",""
"","","","","","canvas-keyboard-response","209","586042","0.0-12.0-2.39","2d_cat_multi_stim_exp1","2022-4-20","11:19:38","25","75","3","9","10","40","30","120","49","21","[""Asian""]","No","Male","1858119","702","u","learn","","","learn_trial","27.9518","73.393","in","1","1","","","","","","","","","","","","","","","","","","","","",""
"","","","","","canvas-keyboard-response","210","586553","0.0-12.0-3.39","2d_cat_multi_stim_exp1","2022-4-20","11:19:38","25","75","3","9","10","40","30","120","49","21","[""Asian""]","No","Male","1858119","null","null","learn_feedback","","","learn_feedback","27.9518","73.393","in","","","","","","","","","","","","","","","","","","","","","","",""
"","","","","","canvas-keyboard-response","211","586612","0.0-12.0-4.39","2d_cat_multi_stim_exp1","2022-4-20","11:19:38","25","75","3","9","10","40","30","120","49","21","[""Asian""]","No","Male","1858119","null","null","","","","clear_screen","","","","","","","","","","","","","","","","","","","","","","","","","",""
"","","","","","canvas-keyboard-response","212","587118","0.0-12.0-0.40","2d_cat_multi_stim_exp1","2022-4-20","11:19:38","25","75","3","9","10","40","30","120","49","21","[""Asian""]","No","Male","1858119","null","null","","","","fixation","","","","","","","","","","","","","","","","","","","","","","","","","",""
"","","","","","canvas-keyboard-response","213","587632","0.0-12.0-1.40","2d_cat_multi_stim_exp1","2022-4-20","11:19:38","25","75","3","9","10","40","30","120","49","21","[""Asian""]","No","Male","1858119","null","null","","","","clear_screen","","","","","","","","","","","","","","","","","","","","","","","","","",""
"","","","","","canvas-keyboard-response","214","588171","0.0-12.0-2.40","2d_cat_multi_stim_exp1","2022-4-20","11:19:38","25","75","3","9","10","40","30","120","49","21","[""Asian""]","No","Male","1858119","531","i","learn","","","learn_trial","36.6667","110","out","0","1","","","","","","","","","","","","","","","","","","","","",""
"","","","","","canvas-keyboard-response","215","588679","0.0-12.0-3.40","2d_cat_multi_stim_exp1","2022-4-20","11:19:38","25","75","3","9","10","40","30","120","49","21","[""Asian""]","No","Male","1858119","null","null","learn_feedback","","","learn_feedback","36.6667","110","out","","","","","","","","","","","","","","","","","","","","","","",""
"","","","","","canvas-keyboard-response","216","588739","0.0-12.0-4.40","2d_cat_multi_stim_exp1","2022-4-20","11:19:38","25","75","3","9","10","40","30","120","49","21","[""Asian""]","No","Male","1858119","null","null","","","","clear_screen","","","","","","","","","","","","","","","","","","","","","","","","","",""
"","","","","","canvas-keyboard-response","217","589247","0.0-12.0-0.41","2d_cat_multi_stim_exp1","2022-4-20","11:19:38","25","75","3","9","10","40","30","120","49","21","[""Asian""]","No","Male","1858119","null","null","","","","fixation","","","","","","","","","","","","","","","","","","","","","","","","","",""
"","","","","","canvas-keyboard-response","218","589760","0.0-12.0-1.41","2d_cat_multi_stim_exp1","2022-4-20","11:19:38","25","75","3","9","10","40","30","120","49","21","[""Asian""]","No","Male","1858119","null","null","","","","clear_screen","","","","","","","","","","","","","","","","","","","","","","","","","",""
"","","","","","canvas-keyboard-response","219","590362","0.0-12.0-2.41","2d_cat_multi_stim_exp1","2022-4-20","11:19:38","25","75","3","9","10","40","30","120","49","21","[""Asian""]","No","Male","1858119","592","i","learn","","","learn_trial","30","100","out","0","1","","","","","","","","","","","","","","","","","","","","",""
"","","","","","canvas-keyboard-response","220","590872","0.0-12.0-3.41","2d_cat_multi_stim_exp1","2022-4-20","11:19:38","25","75","3","9","10","40","30","120","49","21","[""Asian""]","No","Male","1858119","null","null","learn_feedback","","","learn_feedback","30","100","out","","","","","","","","","","","","","","","","","","","","","","",""
"","","","","","canvas-keyboard-response","221","590930","0.0-12.0-4.41","2d_cat_multi_stim_exp1","2022-4-20","11:19:38","25","75","3","9","10","40","30","120","49","21","[""Asian""]","No","Male","1858119","null","null","","","","clear_screen","","","","","","","","","","","","","","","","","","","","","","","","","",""
"","","","","","canvas-keyboard-response","222","591442","0.0-12.0-0.42","2d_cat_multi_stim_exp1","2022-4-20","11:19:38","25","75","3","9","10","40","30","120","49","21","[""Asian""]","No","Male","1858119","null","null","","","","fixation","","","","","","","","","","","","","","","","","","","","","","","","","",""
"","","","","","canvas-keyboard-response","223","591952","0.0-12.0-1.42","2d_cat_multi_stim_exp1","2022-4-20","11:19:38","25","75","3","9","10","40","30","120","49","21","[""Asian""]","No","Male","1858119","null","null","","","","clear_screen","","","","","","","","","","","","","","","","","","","","","","","","","",""
"","","","","","canvas-keyboard-response","224","592923","0.0-12.0-2.42","2d_cat_multi_stim_exp1","2022-4-20","11:19:38","25","75","3","9","10","40","30","120","49","21","[""Asian""]","No","Male","1858119","959","u","learn","","","learn_trial","22.9268","68.4948","in","1","1","","","","","","","","","","","","","","","","","","","","",""
"","","","","","canvas-keyboard-response","225","593434","0.0-12.0-3.42","2d_cat_multi_stim_exp1","2022-4-20","11:19:38","25","75","3","9","10","40","30","120","49","21","[""Asian""]","No","Male","1858119","null","null","learn_feedback","","","learn_feedback","22.9268","68.4948","in","","","","","","","","","","","","","","","","","","","","","","",""
"","","","","","canvas-keyboard-response","226","593495","0.0-12.0-4.42","2d_cat_multi_stim_exp1","2022-4-20","11:19:38","25","75","3","9","10","40","30","120","49","21","[""Asian""]","No","Male","1858119","null","null","","","","clear_screen","","","","","","","","","","","","","","","","","","","","","","","","","",""
"","","","","","canvas-keyboard-response","227","594006","0.0-12.0-0.43","2d_cat_multi_stim_exp1","2022-4-20","11:19:38","25","75","3","9","10","40","30","120","49","21","[""Asian""]","No","Male","1858119","null","null","","","","fixation","","","","","","","","","","","","","","","","","","","","","","","","","",""
"","","","","","canvas-keyboard-response","228","594516","0.0-12.0-1.43","2d_cat_multi_stim_exp1","2022-4-20","11:19:38","25","75","3","9","10","40","30","120","49","21","[""Asian""]","No","Male","1858119","null","null","","","","clear_screen","","","","","","","","","","","","","","","","","","","","","","","","","",""
"","","","","","canvas-keyboard-response","229","594978","0.0-12.0-2.43","2d_cat_multi_stim_exp1","2022-4-20","11:19:38","25","75","3","9","10","40","30","120","49","21","[""Asian""]","No","Male","1858119","451","u","learn","","","learn_trial","25","75","in","1","1","","","","","","","","","","","","","","","","","","","","",""
"","","","","","canvas-keyboard-response","230","595488","0.0-12.0-3.43","2d_cat_multi_stim_exp1","2022-4-20","11:19:38","25","75","3","9","10","40","30","120","49","21","[""Asian""]","No","Male","1858119","null","null","learn_feedback","","","learn_feedback","25","75","in","","","","","","","","","","","","","","","","","","","","","","",""
"","","","","","canvas-keyboard-response","231","595546","0.0-12.0-4.43","2d_cat_multi_stim_exp1","2022-4-20","11:19:38","25","75","3","9","10","40","30","120","49","21","[""Asian""]","No","Male","1858119","null","null","","","","clear_screen","","","","","","","","","","","","","","","","","","","","","","","","","",""
"","","","","","canvas-keyboard-response","232","596055","0.0-12.0-0.44","2d_cat_multi_stim_exp1","2022-4-20","11:19:38","25","75","3","9","10","40","30","120","49","21","[""Asian""]","No","Male","1858119","null","null","","","","fixation","","","","","","","","","","","","","","","","","","","","","","","","","",""
"","","","","","canvas-keyboard-response","233","596565","0.0-12.0-1.44","2d_cat_multi_stim_exp1","2022-4-20","11:19:38","25","75","3","9","10","40","30","120","49","21","[""Asian""]","No","Male","1858119","null","null","","","","clear_screen","","","","","","","","","","","","","","","","","","","","","","","","","",""
"","","","","","canvas-keyboard-response","234","597187","0.0-12.0-2.44","2d_cat_multi_stim_exp1","2022-4-20","11:19:38","25","75","3","9","10","40","30","120","49","21","[""Asian""]","No","Male","1858119","610","u","learn","","","learn_trial","22.5729","69.7099","in","1","1","","","","","","","","","","","","","","","","","","","","",""
"","","","","","canvas-keyboard-response","235","597697","0.0-12.0-3.44","2d_cat_multi_stim_exp1","2022-4-20","11:19:38","25","75","3","9","10","40","30","120","49","21","[""Asian""]","No","Male","1858119","null","null","learn_feedback","","","learn_feedback","22.5729","69.7099","in","","","","","","","","","","","","","","","","","","","","","","",""
"","","","","","canvas-keyboard-response","236","597758","0.0-12.0-4.44","2d_cat_multi_stim_exp1","2022-4-20","11:19:38","25","75","3","9","10","40","30","120","49","21","[""Asian""]","No","Male","1858119","null","null","","","","clear_screen","","","","","","","","","","","","","","","","","","","","","","","","","",""
"","","","","","canvas-keyboard-response","237","598267","0.0-12.0-0.45","2d_cat_multi_stim_exp1","2022-4-20","11:19:38","25","75","3","9","10","40","30","120","49","21","[""Asian""]","No","Male","1858119","null","null","","","","fixation","","","","","","","","","","","","","","","","","","","","","","","","","",""
"","","","","","canvas-keyboard-response","238","598781","0.0-12.0-1.45","2d_cat_multi_stim_exp1","2022-4-20","11:19:38","25","75","3","9","10","40","30","120","49","21","[""Asian""]","No","Male","1858119","null","null","","","","clear_screen","","","","","","","","","","","","","","","","","","","","","","","","","",""
"","","","","","canvas-keyboard-response","239","599242","0.0-12.0-2.45","2d_cat_multi_stim_exp1","2022-4-20","11:19:38","25","75","3","9","10","40","30","120","49","21","[""Asian""]","No","Male","1858119","454","u","learn","","","learn_trial","27.8087","78.1624","in","1","1","","","","","","","","","","","","","","","","","","","","",""
"","","","","","canvas-keyboard-response","240","599752","0.0-12.0-3.45","2d_cat_multi_stim_exp1","2022-4-20","11:19:38","25","75","3","9","10","40","30","120","49","21","[""Asian""]","No","Male","1858119","null","null","learn_feedback","","","learn_feedback","27.8087","78.1624","in","","","","","","","","","","","","","","","","","","","","","","",""
"","","","","","canvas-keyboard-response","241","599808","0.0-12.0-4.45","2d_cat_multi_stim_exp1","2022-4-20","11:19:38","25","75","3","9","10","40","30","120","49","21","[""Asian""]","No","Male","1858119","null","null","","","","clear_screen","","","","","","","","","","","","","","","","","","","","","","","","","",""
"","","","","","canvas-keyboard-response","242","600315","0.0-12.0-0.46","2d_cat_multi_stim_exp1","2022-4-20","11:19:38","25","75","3","9","10","40","30","120","49","21","[""Asian""]","No","Male","1858119","null","null","","","","fixation","","","","","","","","","","","","","","","","","","","","","","","","","",""
"","","","","","canvas-keyboard-response","243","600824","0.0-12.0-1.46","2d_cat_multi_stim_exp1","2022-4-20","11:19:38","25","75","3","9","10","40","30","120","49","21","[""Asian""]","No","Male","1858119","null","null","","","","clear_screen","","","","","","","","","","","","","","","","","","","","","","","","","",""
"","","","","","canvas-keyboard-response","244","601371","0.0-12.0-2.46","2d_cat_multi_stim_exp1","2022-4-20","11:19:38","25","75","3","9","10","40","30","120","49","21","[""Asian""]","No","Male","1858119","536","i","learn","","","learn_trial","20","50","out","0","1","","","","","","","","","","","","","","","","","","","","",""
"","","","","","canvas-keyboard-response","245","601883","0.0-12.0-3.46","2d_cat_multi_stim_exp1","2022-4-20","11:19:38","25","75","3","9","10","40","30","120","49","21","[""Asian""]","No","Male","1858119","null","null","learn_feedback","","","learn_feedback","20","50","out","","","","","","","","","","","","","","","","","","","","","","",""
"","","","","","canvas-keyboard-response","246","601941","0.0-12.0-4.46","2d_cat_multi_stim_exp1","2022-4-20","11:19:38","25","75","3","9","10","40","30","120","49","21","[""Asian""]","No","Male","1858119","null","null","","","","clear_screen","","","","","","","","","","","","","","","","","","","","","","","","","",""
"","","","","","canvas-keyboard-response","247","602452","0.0-12.0-0.47","2d_cat_multi_stim_exp1","2022-4-20","11:19:38","25","75","3","9","10","40","30","120","49","21","[""Asian""]","No","Male","1858119","null","null","","","","fixation","","","","","","","","","","","","","","","","","","","","","","","","","",""
"","","","","","canvas-keyboard-response","248","602961","0.0-12.0-1.47","2d_cat_multi_stim_exp1","2022-4-20","11:19:38","25","75","3","9","10","40","30","120","49","21","[""Asian""]","No","Male","1858119","null","null","","","","clear_screen","","","","","","","","","","","","","","","","","","","","","","","","","",""
"","","","","","canvas-keyboard-response","249","603530","0.0-12.0-2.47","2d_cat_multi_stim_exp1","2022-4-20","11:19:38","25","75","3","9","10","40","30","120","49","21","[""Asian""]","No","Male","1858119","559","u","learn","","","learn_trial","25","75","in","1","1","","","","","","","","","","","","","","","","","","","","",""
"","","","","","canvas-keyboard-response","250","604039","0.0-12.0-3.47","2d_cat_multi_stim_exp1","2022-4-20","11:19:38","25","75","3","9","10","40","30","120","49","21","[""Asian""]","No","Male","1858119","null","null","learn_feedback","","","learn_feedback","25","75","in","","","","","","","","","","","","","","","","","","","","","","",""
"","","","","","canvas-keyboard-response","251","604101","0.0-12.0-4.47","2d_cat_multi_stim_exp1","2022-4-20","11:19:38","25","75","3","9","10","40","30","120","49","21","[""Asian""]","No","Male","1858119","null","null","","","","clear_screen","","","","","","","","","","","","","","","","","","","","","","","","","",""
"","","","","","canvas-keyboard-response","252","604614","0.0-12.0-0.48","2d_cat_multi_stim_exp1","2022-4-20","11:19:38","25","75","3","9","10","40","30","120","49","21","[""Asian""]","No","Male","1858119","null","null","","","","fixation","","","","","","","","","","","","","","","","","","","","","","","","","",""
"","","","","","canvas-keyboard-response","253","605125","0.0-12.0-1.48","2d_cat_multi_stim_exp1","2022-4-20","11:19:38","25","75","3","9","10","40","30","120","49","21","[""Asian""]","No","Male","1858119","null","null","","","","clear_screen","","","","","","","","","","","","","","","","","","","","","","","","","",""
"","","","","","canvas-keyboard-response","254","605794","0.0-12.0-2.48","2d_cat_multi_stim_exp1","2022-4-20","11:19:38","25","75","3","9","10","40","30","120","49","21","[""Asian""]","No","Male","1858119","658","i","learn","","","learn_trial","40","110","out","0","1","","","","","","","","","","","","","","","","","","","","",""
"","","","","","canvas-keyboard-response","255","606303","0.0-12.0-3.48","2d_cat_multi_stim_exp1","2022-4-20","11:19:38","25","75","3","9","10","40","30","120","49","21","[""Asian""]","No","Male","1858119","null","null","learn_feedback","","","learn_feedback","40","110","out","","","","","","","","","","","","","","","","","","","","","","",""
"","","","","","canvas-keyboard-response","256","606362","0.0-12.0-4.48","2d_cat_multi_stim_exp1","2022-4-20","11:19:38","25","75","3","9","10","40","30","120","49","21","[""Asian""]","No","Male","1858119","null","null","","","","clear_screen","","","","","","","","","","","","","","","","","","","","","","","","","",""
"","","","","","canvas-keyboard-response","257","606876","0.0-12.0-0.49","2d_cat_multi_stim_exp1","2022-4-20","11:19:38","25","75","3","9","10","40","30","120","49","21","[""Asian""]","No","Male","1858119","null","null","","","","fixation","","","","","","","","","","","","","","","","","","","","","","","","","",""
"","","","","","canvas-keyboard-response","258","607385","0.0-12.0-1.49","2d_cat_multi_stim_exp1","2022-4-20","11:19:38","25","75","3","9","10","40","30","120","49","21","[""Asian""]","No","Male","1858119","null","null","","","","clear_screen","","","","","","","","","","","","","","","","","","","","","","","","","",""
"","","","","","canvas-keyboard-response","259","608147","0.0-12.0-2.49","2d_cat_multi_stim_exp1","2022-4-20","11:19:38","25","75","3","9","10","40","30","120","49","21","[""Asian""]","No","Male","1858119","751","i","learn","","","learn_trial","10","50","out","0","1","","","","","","","","","","","","","","","","","","","","",""
"","","","","","canvas-keyboard-response","260","608655","0.0-12.0-3.49","2d_cat_multi_stim_exp1","2022-4-20","11:19:38","25","75","3","9","10","40","30","120","49","21","[""Asian""]","No","Male","1858119","null","null","learn_feedback","","","learn_feedback","10","50","out","","","","","","","","","","","","","","","","","","","","","","",""
"","","","","","canvas-keyboard-response","261","608717","0.0-12.0-4.49","2d_cat_multi_stim_exp1","2022-4-20","11:19:38","25","75","3","9","10","40","30","120","49","21","[""Asian""]","No","Male","1858119","null","null","","","","clear_screen","","","","","","","","","","","","","","","","","","","","","","","","","",""
"","","","","","canvas-keyboard-response","262","609227","0.0-12.0-0.50","2d_cat_multi_stim_exp1","2022-4-20","11:19:38","25","75","3","9","10","40","30","120","49","21","[""Asian""]","No","Male","1858119","null","null","","","","fixation","","","","","","","","","","","","","","","","","","","","","","","","","",""
"","","","","","canvas-keyboard-response","263","609737","0.0-12.0-1.50","2d_cat_multi_stim_exp1","2022-4-20","11:19:38","25","75","3","9","10","40","30","120","49","21","[""Asian""]","No","Male","1858119","null","null","","","","clear_screen","","","","","","","","","","","","","","","","","","","","","","","","","",""
"","","","","","canvas-keyboard-response","264","610257","0.0-12.0-2.50","2d_cat_multi_stim_exp1","2022-4-20","11:19:38","25","75","3","9","10","40","30","120","49","21","[""Asian""]","No","Male","1858119","510","i","learn","","","learn_trial","16.6667","30","out","0","1","","","","","","","","","","","","","","","","","","","","",""
"","","","","","canvas-keyboard-response","265","610768","0.0-12.0-3.50","2d_cat_multi_stim_exp1","2022-4-20","11:19:38","25","75","3","9","10","40","30","120","49","21","[""Asian""]","No","Male","1858119","null","null","learn_feedback","","","learn_feedback","16.6667","30","out","","","","","","","","","","","","","","","","","","","","","","",""
"","","","","","canvas-keyboard-response","266","610826","0.0-12.0-4.50","2d_cat_multi_stim_exp1","2022-4-20","11:19:38","25","75","3","9","10","40","30","120","49","21","[""Asian""]","No","Male","1858119","null","null","","","","clear_screen","","","","","","","","","","","","","","","","","","","","","","","","","",""
"","","","","","canvas-keyboard-response","267","611334","0.0-12.0-0.51","2d_cat_multi_stim_exp1","2022-4-20","11:19:38","25","75","3","9","10","40","30","120","49","21","[""Asian""]","No","Male","1858119","null","null","","","","fixation","","","","","","","","","","","","","","","","","","","","","","","","","",""
"","","","","","canvas-keyboard-response","268","611847","0.0-12.0-1.51","2d_cat_multi_stim_exp1","2022-4-20","11:19:38","25","75","3","9","10","40","30","120","49","21","[""Asian""]","No","Male","1858119","null","null","","","","clear_screen","","","","","","","","","","","","","","","","","","","","","","","","","",""
"","","","","","canvas-keyboard-response","269","612650","0.0-12.0-2.51","2d_cat_multi_stim_exp1","2022-4-20","11:19:38","25","75","3","9","10","40","30","120","49","21","[""Asian""]","No","Male","1858119","792","u","learn","","","learn_trial","30","60","out","1","0","","","","","","","","","","","","","","","","","","","","",""
"","","","","","canvas-keyboard-response","270","613661","0.0-12.0-3.51","2d_cat_multi_stim_exp1","2022-4-20","11:19:38","25","75","3","9","10","40","30","120","49","21","[""Asian""]","No","Male","1858119","null","null","learn_feedback","","","learn_feedback","30","60","out","","","","","","","","","","","","","","","","","","","","","","",""
"","","","","","canvas-keyboard-response","271","613724","0.0-12.0-4.51","2d_cat_multi_stim_exp1","2022-4-20","11:19:38","25","75","3","9","10","40","30","120","49","21","[""Asian""]","No","Male","1858119","null","null","","","","clear_screen","","","","","","","","","","","","","","","","","","","","","","","","","",""
"","","","","","canvas-keyboard-response","272","614232","0.0-12.0-0.52","2d_cat_multi_stim_exp1","2022-4-20","11:19:38","25","75","3","9","10","40","30","120","49","21","[""Asian""]","No","Male","1858119","null","null","","","","fixation","","","","","","","","","","","","","","","","","","","","","","","","","",""
"","","","","","canvas-keyboard-response","273","614745","0.0-12.0-1.52","2d_cat_multi_stim_exp1","2022-4-20","11:19:38","25","75","3","9","10","40","30","120","49","21","[""Asian""]","No","Male","1858119","null","null","","","","clear_screen","","","","","","","","","","","","","","","","","","","","","","","","","",""
"","","","","","canvas-keyboard-response","274","615203","0.0-12.0-2.52","2d_cat_multi_stim_exp1","2022-4-20","11:19:38","25","75","3","9","10","40","30","120","49","21","[""Asian""]","No","Male","1858119","447","i","learn","","","learn_trial","27.5753","70.3839","in","0","0","","","","","","","","","","","","","","","","","","","","",""
"","","","","","canvas-keyboard-response","275","616212","0.0-12.0-3.52","2d_cat_multi_stim_exp1","2022-4-20","11:19:38","25","75","3","9","10","40","30","120","49","21","[""Asian""]","No","Male","1858119","null","null","learn_feedback","","","learn_feedback","27.5753","70.3839","in","","","","","","","","","","","","","","","","","","","","","","",""
"","","","","","canvas-keyboard-response","276","616272","0.0-12.0-4.52","2d_cat_multi_stim_exp1","2022-4-20","11:19:38","25","75","3","9","10","40","30","120","49","21","[""Asian""]","No","Male","1858119","null","null","","","","clear_screen","","","","","","","","","","","","","","","","","","","","","","","","","",""
"","","","","","canvas-keyboard-response","277","616782","0.0-12.0-0.53","2d_cat_multi_stim_exp1","2022-4-20","11:19:38","25","75","3","9","10","40","30","120","49","21","[""Asian""]","No","Male","1858119","null","null","","","","fixation","","","","","","","","","","","","","","","","","","","","","","","","","",""
"","","","","","canvas-keyboard-response","278","617293","0.0-12.0-1.53","2d_cat_multi_stim_exp1","2022-4-20","11:19:38","25","75","3","9","10","40","30","120","49","21","[""Asian""]","No","Male","1858119","null","null","","","","clear_screen","","","","","","","","","","","","","","","","","","","","","","","","","",""
"","","","","","canvas-keyboard-response","279","617882","0.0-12.0-2.53","2d_cat_multi_stim_exp1","2022-4-20","11:19:38","25","75","3","9","10","40","30","120","49","21","[""Asian""]","No","Male","1858119","580","u","learn","","","learn_trial","25.9271","66.4405","in","1","1","","","","","","","","","","","","","","","","","","","","",""
"","","","","","canvas-keyboard-response","280","618393","0.0-12.0-3.53","2d_cat_multi_stim_exp1","2022-4-20","11:19:38","25","75","3","9","10","40","30","120","49","21","[""Asian""]","No","Male","1858119","null","null","learn_feedback","","","learn_feedback","25.9271","66.4405","in","","","","","","","","","","","","","","","","","","","","","","",""
"","","","","","canvas-keyboard-response","281","618452","0.0-12.0-4.53","2d_cat_multi_stim_exp1","2022-4-20","11:19:38","25","75","3","9","10","40","30","120","49","21","[""Asian""]","No","Male","1858119","null","null","","","","clear_screen","","","","","","","","","","","","","","","","","","","","","","","","","",""
"","","","","","canvas-keyboard-response","282","618964","0.0-12.0-0.54","2d_cat_multi_stim_exp1","2022-4-20","11:19:38","25","75","3","9","10","40","30","120","49","21","[""Asian""]","No","Male","1858119","null","null","","","","fixation","","","","","","","","","","","","","","","","","","","","","","","","","",""
"","","","","","canvas-keyboard-response","283","619474","0.0-12.0-1.54","2d_cat_multi_stim_exp1","2022-4-20","11:19:38","25","75","3","9","10","40","30","120","49","21","[""Asian""]","No","Male","1858119","null","null","","","","clear_screen","","","","","","","","","","","","","","","","","","","","","","","","","",""
"","","","","","canvas-keyboard-response","284","619962","0.0-12.0-2.54","2d_cat_multi_stim_exp1","2022-4-20","11:19:38","25","75","3","9","10","40","30","120","49","21","[""Asian""]","No","Male","1858119","478","u","learn","","","learn_trial","25","75","in","1","1","","","","","","","","","","","","","","","","","","","","",""
"","","","","","canvas-keyboard-response","285","620471","0.0-12.0-3.54","2d_cat_multi_stim_exp1","2022-4-20","11:19:38","25","75","3","9","10","40","30","120","49","21","[""Asian""]","No","Male","1858119","null","null","learn_feedback","","","learn_feedback","25","75","in","","","","","","","","","","","","","","","","","","","","","","",""
"","","","","","canvas-keyboard-response","286","620533","0.0-12.0-4.54","2d_cat_multi_stim_exp1","2022-4-20","11:19:38","25","75","3","9","10","40","30","120","49","21","[""Asian""]","No","Male","1858119","null","null","","","","clear_screen","","","","","","","","","","","","","","","","","","","","","","","","","",""
"","","","","","canvas-keyboard-response","287","621041","0.0-12.0-0.55","2d_cat_multi_stim_exp1","2022-4-20","11:19:38","25","75","3","9","10","40","30","120","49","21","[""Asian""]","No","Male","1858119","null","null","","","","fixation","","","","","","","","","","","","","","","","","","","","","","","","","",""
"","","","","","canvas-keyboard-response","288","621552","0.0-12.0-1.55","2d_cat_multi_stim_exp1","2022-4-20","11:19:38","25","75","3","9","10","40","30","120","49","21","[""Asian""]","No","Male","1858119","null","null","","","","clear_screen","","","","","","","","","","","","","","","","","","","","","","","","","",""
"","","","","","canvas-keyboard-response","289","622002","0.0-12.0-2.55","2d_cat_multi_stim_exp1","2022-4-20","11:19:38","25","75","3","9","10","40","30","120","49","21","[""Asian""]","No","Male","1858119","439","u","learn","","","learn_trial","27.2592","69.0786","in","1","1","","","","","","","","","","","","","","","","","","","","",""
"","","","","","canvas-keyboard-response","290","622512","0.0-12.0-3.55","2d_cat_multi_stim_exp1","2022-4-20","11:19:38","25","75","3","9","10","40","30","120","49","21","[""Asian""]","No","Male","1858119","null","null","learn_feedback","","","learn_feedback","27.2592","69.0786","in","","","","","","","","","","","","","","","","","","","","","","",""
"","","","","","canvas-keyboard-response","291","622573","0.0-12.0-4.55","2d_cat_multi_stim_exp1","2022-4-20","11:19:38","25","75","3","9","10","40","30","120","49","21","[""Asian""]","No","Male","1858119","null","null","","","","clear_screen","","","","","","","","","","","","","","","","","","","","","","","","","",""
"","","","","","canvas-keyboard-response","292","623084","0.0-12.0-0.56","2d_cat_multi_stim_exp1","2022-4-20","11:19:38","25","75","3","9","10","40","30","120","49","21","[""Asian""]","No","Male","1858119","null","null","","","","fixation","","","","","","","","","","","","","","","","","","","","","","","","","",""
"","","","","","canvas-keyboard-response","293","623594","0.0-12.0-1.56","2d_cat_multi_stim_exp1","2022-4-20","11:19:38","25","75","3","9","10","40","30","120","49","21","[""Asian""]","No","Male","1858119","null","null","","","","clear_screen","","","","","","","","","","","","","","","","","","","","","","","","","",""
"","","","","","canvas-keyboard-response","294","624162","0.0-12.0-2.56","2d_cat_multi_stim_exp1","2022-4-20","11:19:38","25","75","3","9","10","40","30","120","49","21","[""Asian""]","No","Male","1858119","556","i","learn","","","learn_trial","23.3333","110","out","0","1","","","","","","","","","","","","","","","","","","","","",""
"","","","","","canvas-keyboard-response","295","624672","0.0-12.0-3.56","2d_cat_multi_stim_exp1","2022-4-20","11:19:38","25","75","3","9","10","40","30","120","49","21","[""Asian""]","No","Male","1858119","null","null","learn_feedback","","","learn_feedback","23.3333","110","out","","","","","","","","","","","","","","","","","","","","","","",""
"","","","","","canvas-keyboard-response","296","624734","0.0-12.0-4.56","2d_cat_multi_stim_exp1","2022-4-20","11:19:38","25","75","3","9","10","40","30","120","49","21","[""Asian""]","No","Male","1858119","null","null","","","","clear_screen","","","","","","","","","","","","","","","","","","","","","","","","","",""
"","","","","","canvas-keyboard-response","297","625243","0.0-12.0-0.57","2d_cat_multi_stim_exp1","2022-4-20","11:19:38","25","75","3","9","10","40","30","120","49","21","[""Asian""]","No","Male","1858119","null","null","","","","fixation","","","","","","","","","","","","","","","","","","","","","","","","","",""
