"success","timeout","failed_images","failed_audio","failed_video","trial_type","trial_index","time_elapsed","internal_node_id","exp_name","date","time","angle_mean_in","radius_mean_in","angle_sd_in","radius_sd_in","angle_min_out","angle_max_out","radius_min_out","radius_max_out","sub_n","age","race","ethnicity","gender","exp_duration","rt","response","exp_trial_type","stimulus","view_history","screen_id","angle","radius","distribution","choice","correct","order","angle_a","radius_a","angle_b","radius_b","jkl_correct","transfer_trial_type","choice_set","abc_correct","tc_correct","tc_angle","tdc_a","tdc_b","tdc_c","pair","category_a","category_b","category_c","angle_c","radius_c","question_order"
"true","false","[]","[]","[]","preload","0","29","0.0-0.0","2d_cat_multi_stim_exp1","2022-4-28","14:37:16","25","75","3","9","10","40","30","120","69","19","[""Other""]","Yes","Female","1866012","","","","","","","","","","","","","","","","","","","","","","","","","","","","","","","",""
"","","","","","survey-html-form","1","3291","0.0-1.0","2d_cat_multi_stim_exp1","2022-4-28","14:37:16","25","75","3","9","10","40","30","120","69","19","[""Other""]","Yes","Female","1866012","3244","{""response"":""69""}","enter-sub-number","","","","","","","","","","","","","","","","","","","","","","","","","","","","",""
"true","","","","","fullscreen","2","4958","0.0-2.0","2d_cat_multi_stim_exp1","2022-4-28","14:37:16","25","75","3","9","10","40","30","120","69","19","[""Other""]","Yes","Female","1866012","","","","","","","","","","","","","","","","","","","","","","","","","","","","","","","",""
"","","","","","image-button-response","3","24766","0.0-3.0","2d_cat_multi_stim_exp1","2022-4-28","14:37:16","25","75","3","9","10","40","30","120","69","19","[""Other""]","Yes","Female","1866012","19801","0","","consent.png","","","","","","","","","","","","","","","","","","","","","","","","","","","",""
"","","","","","html-button-response","4","37422","0.0-4.0","2d_cat_multi_stim_exp1","2022-4-28","14:37:16","25","75","3","9","10","40","30","120","69","19","[""Other""]","Yes","Female","1866012","12651","0","","<div style= ""font-size:25px;"" <p> <strong> Welcome to the experiment! </strong><br> <p style=""color:#8B0000; font-size:25px;""><strong> Please do NOT exit full screen until you are done with the experiment. </strong> </p><p style=""font-size:25px;color:#8B0000;""> <strong> The experiment will be canceled and your data will be lost <br> if you try to go back or refresh the page at any point during the experiment.</strong> </p><br><p> <strong> Thanks in advance for your contribution to our research! </strong></p>","","","","","","","","","","","","","","","","","","","","","","","","","","","",""
"","","","","","instructions","5","88078","0.0-5.0","2d_cat_multi_stim_exp1","2022-4-28","14:37:16","25","75","3","9","10","40","30","120","69","19","[""Other""]","Yes","Female","1866012","50652","","","","[{""page_index"":0,""viewing_time"":6556},{""page_index"":1,""viewing_time"":3215},{""page_index"":2,""viewing_time"":8673},{""page_index"":3,""viewing_time"":32208}]","instructions_1","","","","","","","","","","","","","","","","","","","","","","","","","",""
"","","","","","instructions","6","90566","0.0-6.0","2d_cat_multi_stim_exp1","2022-4-28","14:37:16","25","75","3","9","10","40","30","120","69","19","[""Other""]","Yes","Female","1866012","2483","","","","[{""page_index"":0,""viewing_time"":2483}]","Click to see the kinds of turtles that will appear in the study.","","","","","","","","","","","","","","","","","","","","","","","","","",""
"","","","","","canvas-keyboard-response","7","105588","0.0-7.0","2d_cat_multi_stim_exp1","2022-4-28","14:37:16","25","75","3","9","10","40","30","120","69","19","[""Other""]","Yes","Female","1866012","null","null","","","","demo_range","","","","","","","","","","","","","","","","","","","","","","","","","",""
"","","","","","instructions","8","108485","0.0-8.0","2d_cat_multi_stim_exp1","2022-4-28","14:37:16","25","75","3","9","10","40","30","120","69","19","[""Other""]","Yes","Female","1866012","2394","","","","[{""page_index"":0,""viewing_time"":2394}]","Click to see some turtles in the subspecies.","","","","","","","","","","","","","","","","","","","","","","","","","",""
"","","","","","canvas-keyboard-response","9","123506","0.0-9.0","2d_cat_multi_stim_exp1","2022-4-28","14:37:16","25","75","3","9","10","40","30","120","69","19","[""Other""]","Yes","Female","1866012","null","null","","","","demo_in","","","","","","","","","","","","","","","","","","","","","","","","","",""
"","","","","","instructions","10","184308","0.0-10.0","2d_cat_multi_stim_exp1","2022-4-28","14:37:16","25","75","3","9","10","40","30","120","69","19","[""Other""]","Yes","Female","1866012","60301","","","","[{""page_index"":0,""viewing_time"":22349},{""page_index"":1,""viewing_time"":28240},{""page_index"":2,""viewing_time"":9711}]","instructions_2","","","","","","","","","","","","","","","","","","","","","","","","","",""
"","","","","","instructions","11","187989","0.0-11.0","2d_cat_multi_stim_exp1","2022-4-28","14:37:16","25","75","3","9","10","40","30","120","69","19","[""Other""]","Yes","Female","1866012","3677","","","","[{""page_index"":0,""viewing_time"":3677}]","Click to begin the first phase of the experiment.","","","","","","","","","","","","","","","","","","","","","","","","","",""
"","","","","","canvas-keyboard-response","12","188499","0.0-12.0-0.0","2d_cat_multi_stim_exp1","2022-4-28","14:37:16","25","75","3","9","10","40","30","120","69","19","[""Other""]","Yes","Female","1866012","null","null","","","","fixation","","","","","","","","","","","","","","","","","","","","","","","","","",""
"","","","","","canvas-keyboard-response","13","189009","0.0-12.0-1.0","2d_cat_multi_stim_exp1","2022-4-28","14:37:16","25","75","3","9","10","40","30","120","69","19","[""Other""]","Yes","Female","1866012","null","null","","","","clear_screen","","","","","","","","","","","","","","","","","","","","","","","","","",""
"","","","","","canvas-keyboard-response","14","194146","0.0-12.0-2.0","2d_cat_multi_stim_exp1","2022-4-28","14:37:16","25","75","3","9","10","40","30","120","69","19","[""Other""]","Yes","Female","1866012","5126","u","learn","","","learn_trial","22.1081","77.3943","in","1","1","","","","","","","","","","","","","","","","","","","","",""
"","","","","","canvas-keyboard-response","15","194658","0.0-12.0-3.0","2d_cat_multi_stim_exp1","2022-4-28","14:37:16","25","75","3","9","10","40","30","120","69","19","[""Other""]","Yes","Female","1866012","null","null","learn_feedback","","","learn_feedback","22.1081","77.3943","in","","","","","","","","","","","","","","","","","","","","","","",""
"","","","","","canvas-keyboard-response","16","194720","0.0-12.0-4.0","2d_cat_multi_stim_exp1","2022-4-28","14:37:16","25","75","3","9","10","40","30","120","69","19","[""Other""]","Yes","Female","1866012","null","null","","","","clear_screen","","","","","","","","","","","","","","","","","","","","","","","","","",""
"","","","","","canvas-keyboard-response","17","195231","0.0-12.0-0.1","2d_cat_multi_stim_exp1","2022-4-28","14:37:16","25","75","3","9","10","40","30","120","69","19","[""Other""]","Yes","Female","1866012","null","null","","","","fixation","","","","","","","","","","","","","","","","","","","","","","","","","",""
"","","","","","canvas-keyboard-response","18","195742","0.0-12.0-1.1","2d_cat_multi_stim_exp1","2022-4-28","14:37:16","25","75","3","9","10","40","30","120","69","19","[""Other""]","Yes","Female","1866012","null","null","","","","clear_screen","","","","","","","","","","","","","","","","","","","","","","","","","",""
"","","","","","canvas-keyboard-response","19","198146","0.0-12.0-2.1","2d_cat_multi_stim_exp1","2022-4-28","14:37:16","25","75","3","9","10","40","30","120","69","19","[""Other""]","Yes","Female","1866012","2394","i","learn","","","learn_trial","36.6667","70","out","0","1","","","","","","","","","","","","","","","","","","","","",""
"","","","","","canvas-keyboard-response","20","198657","0.0-12.0-3.1","2d_cat_multi_stim_exp1","2022-4-28","14:37:16","25","75","3","9","10","40","30","120","69","19","[""Other""]","Yes","Female","1866012","null","null","learn_feedback","","","learn_feedback","36.6667","70","out","","","","","","","","","","","","","","","","","","","","","","",""
"","","","","","canvas-keyboard-response","21","198717","0.0-12.0-4.1","2d_cat_multi_stim_exp1","2022-4-28","14:37:16","25","75","3","9","10","40","30","120","69","19","[""Other""]","Yes","Female","1866012","null","null","","","","clear_screen","","","","","","","","","","","","","","","","","","","","","","","","","",""
"","","","","","canvas-keyboard-response","22","199226","0.0-12.0-0.2","2d_cat_multi_stim_exp1","2022-4-28","14:37:16","25","75","3","9","10","40","30","120","69","19","[""Other""]","Yes","Female","1866012","null","null","","","","fixation","","","","","","","","","","","","","","","","","","","","","","","","","",""
"","","","","","canvas-keyboard-response","23","199736","0.0-12.0-1.2","2d_cat_multi_stim_exp1","2022-4-28","14:37:16","25","75","3","9","10","40","30","120","69","19","[""Other""]","Yes","Female","1866012","null","null","","","","clear_screen","","","","","","","","","","","","","","","","","","","","","","","","","",""
"","","","","","canvas-keyboard-response","24","201826","0.0-12.0-2.2","2d_cat_multi_stim_exp1","2022-4-28","14:37:16","25","75","3","9","10","40","30","120","69","19","[""Other""]","Yes","Female","1866012","2081","i","learn","","","learn_trial","13.3333","40","out","0","1","","","","","","","","","","","","","","","","","","","","",""
"","","","","","canvas-keyboard-response","25","202336","0.0-12.0-3.2","2d_cat_multi_stim_exp1","2022-4-28","14:37:16","25","75","3","9","10","40","30","120","69","19","[""Other""]","Yes","Female","1866012","null","null","learn_feedback","","","learn_feedback","13.3333","40","out","","","","","","","","","","","","","","","","","","","","","","",""
"","","","","","canvas-keyboard-response","26","202396","0.0-12.0-4.2","2d_cat_multi_stim_exp1","2022-4-28","14:37:16","25","75","3","9","10","40","30","120","69","19","[""Other""]","Yes","Female","1866012","null","null","","","","clear_screen","","","","","","","","","","","","","","","","","","","","","","","","","",""
"","","","","","canvas-keyboard-response","27","202906","0.0-12.0-0.3","2d_cat_multi_stim_exp1","2022-4-28","14:37:16","25","75","3","9","10","40","30","120","69","19","[""Other""]","Yes","Female","1866012","null","null","","","","fixation","","","","","","","","","","","","","","","","","","","","","","","","","",""
"","","","","","canvas-keyboard-response","28","203415","0.0-12.0-1.3","2d_cat_multi_stim_exp1","2022-4-28","14:37:16","25","75","3","9","10","40","30","120","69","19","[""Other""]","Yes","Female","1866012","null","null","","","","clear_screen","","","","","","","","","","","","","","","","","","","","","","","","","",""
"","","","","","canvas-keyboard-response","29","205746","0.0-12.0-2.3","2d_cat_multi_stim_exp1","2022-4-28","14:37:16","25","75","3","9","10","40","30","120","69","19","[""Other""]","Yes","Female","1866012","2320","u","learn","","","learn_trial","22.2971","71.095","in","1","1","","","","","","","","","","","","","","","","","","","","",""
"","","","","","canvas-keyboard-response","30","206256","0.0-12.0-3.3","2d_cat_multi_stim_exp1","2022-4-28","14:37:16","25","75","3","9","10","40","30","120","69","19","[""Other""]","Yes","Female","1866012","null","null","learn_feedback","","","learn_feedback","22.2971","71.095","in","","","","","","","","","","","","","","","","","","","","","","",""
"","","","","","canvas-keyboard-response","31","206318","0.0-12.0-4.3","2d_cat_multi_stim_exp1","2022-4-28","14:37:16","25","75","3","9","10","40","30","120","69","19","[""Other""]","Yes","Female","1866012","null","null","","","","clear_screen","","","","","","","","","","","","","","","","","","","","","","","","","",""
"","","","","","canvas-keyboard-response","32","206826","0.0-12.0-0.4","2d_cat_multi_stim_exp1","2022-4-28","14:37:16","25","75","3","9","10","40","30","120","69","19","[""Other""]","Yes","Female","1866012","null","null","","","","fixation","","","","","","","","","","","","","","","","","","","","","","","","","",""
"","","","","","canvas-keyboard-response","33","207336","0.0-12.0-1.4","2d_cat_multi_stim_exp1","2022-4-28","14:37:16","25","75","3","9","10","40","30","120","69","19","[""Other""]","Yes","Female","1866012","null","null","","","","clear_screen","","","","","","","","","","","","","","","","","","","","","","","","","",""
"","","","","","canvas-keyboard-response","34","209266","0.0-12.0-2.4","2d_cat_multi_stim_exp1","2022-4-28","14:37:16","25","75","3","9","10","40","30","120","69","19","[""Other""]","Yes","Female","1866012","1922","u","learn","","","learn_trial","25","75","in","1","1","","","","","","","","","","","","","","","","","","","","",""
"","","","","","canvas-keyboard-response","35","209776","0.0-12.0-3.4","2d_cat_multi_stim_exp1","2022-4-28","14:37:16","25","75","3","9","10","40","30","120","69","19","[""Other""]","Yes","Female","1866012","null","null","learn_feedback","","","learn_feedback","25","75","in","","","","","","","","","","","","","","","","","","","","","","",""
"","","","","","canvas-keyboard-response","36","209835","0.0-12.0-4.4","2d_cat_multi_stim_exp1","2022-4-28","14:37:16","25","75","3","9","10","40","30","120","69","19","[""Other""]","Yes","Female","1866012","null","null","","","","clear_screen","","","","","","","","","","","","","","","","","","","","","","","","","",""
"","","","","","canvas-keyboard-response","37","210344","0.0-12.0-0.5","2d_cat_multi_stim_exp1","2022-4-28","14:37:16","25","75","3","9","10","40","30","120","69","19","[""Other""]","Yes","Female","1866012","null","null","","","","fixation","","","","","","","","","","","","","","","","","","","","","","","","","",""
"","","","","","canvas-keyboard-response","38","210854","0.0-12.0-1.5","2d_cat_multi_stim_exp1","2022-4-28","14:37:16","25","75","3","9","10","40","30","120","69","19","[""Other""]","Yes","Female","1866012","null","null","","","","clear_screen","","","","","","","","","","","","","","","","","","","","","","","","","",""
"","","","","","canvas-keyboard-response","39","212018","0.0-12.0-2.5","2d_cat_multi_stim_exp1","2022-4-28","14:37:16","25","75","3","9","10","40","30","120","69","19","[""Other""]","Yes","Female","1866012","1156","u","learn","","","learn_trial","25","75","in","1","1","","","","","","","","","","","","","","","","","","","","",""
"","","","","","canvas-keyboard-response","40","212527","0.0-12.0-3.5","2d_cat_multi_stim_exp1","2022-4-28","14:37:16","25","75","3","9","10","40","30","120","69","19","[""Other""]","Yes","Female","1866012","null","null","learn_feedback","","","learn_feedback","25","75","in","","","","","","","","","","","","","","","","","","","","","","",""
"","","","","","canvas-keyboard-response","41","212586","0.0-12.0-4.5","2d_cat_multi_stim_exp1","2022-4-28","14:37:16","25","75","3","9","10","40","30","120","69","19","[""Other""]","Yes","Female","1866012","null","null","","","","clear_screen","","","","","","","","","","","","","","","","","","","","","","","","","",""
"","","","","","canvas-keyboard-response","42","213095","0.0-12.0-0.6","2d_cat_multi_stim_exp1","2022-4-28","14:37:16","25","75","3","9","10","40","30","120","69","19","[""Other""]","Yes","Female","1866012","null","null","","","","fixation","","","","","","","","","","","","","","","","","","","","","","","","","",""
"","","","","","canvas-keyboard-response","43","213605","0.0-12.0-1.6","2d_cat_multi_stim_exp1","2022-4-28","14:37:16","25","75","3","9","10","40","30","120","69","19","[""Other""]","Yes","Female","1866012","null","null","","","","clear_screen","","","","","","","","","","","","","","","","","","","","","","","","","",""
"","","","","","canvas-keyboard-response","44","214906","0.0-12.0-2.6","2d_cat_multi_stim_exp1","2022-4-28","14:37:16","25","75","3","9","10","40","30","120","69","19","[""Other""]","Yes","Female","1866012","1291","u","learn","","","learn_trial","25","75","in","1","1","","","","","","","","","","","","","","","","","","","","",""
"","","","","","canvas-keyboard-response","45","215415","0.0-12.0-3.6","2d_cat_multi_stim_exp1","2022-4-28","14:37:16","25","75","3","9","10","40","30","120","69","19","[""Other""]","Yes","Female","1866012","null","null","learn_feedback","","","learn_feedback","25","75","in","","","","","","","","","","","","","","","","","","","","","","",""
"","","","","","canvas-keyboard-response","46","215477","0.0-12.0-4.6","2d_cat_multi_stim_exp1","2022-4-28","14:37:16","25","75","3","9","10","40","30","120","69","19","[""Other""]","Yes","Female","1866012","null","null","","","","clear_screen","","","","","","","","","","","","","","","","","","","","","","","","","",""
"","","","","","canvas-keyboard-response","47","215987","0.0-12.0-0.7","2d_cat_multi_stim_exp1","2022-4-28","14:37:16","25","75","3","9","10","40","30","120","69","19","[""Other""]","Yes","Female","1866012","null","null","","","","fixation","","","","","","","","","","","","","","","","","","","","","","","","","",""
"","","","","","canvas-keyboard-response","48","216497","0.0-12.0-1.7","2d_cat_multi_stim_exp1","2022-4-28","14:37:16","25","75","3","9","10","40","30","120","69","19","[""Other""]","Yes","Female","1866012","null","null","","","","clear_screen","","","","","","","","","","","","","","","","","","","","","","","","","",""
"","","","","","canvas-keyboard-response","49","218033","0.0-12.0-2.7","2d_cat_multi_stim_exp1","2022-4-28","14:37:16","25","75","3","9","10","40","30","120","69","19","[""Other""]","Yes","Female","1866012","1527","i","learn","","","learn_trial","20","70","out","0","1","","","","","","","","","","","","","","","","","","","","",""
"","","","","","canvas-keyboard-response","50","218544","0.0-12.0-3.7","2d_cat_multi_stim_exp1","2022-4-28","14:37:16","25","75","3","9","10","40","30","120","69","19","[""Other""]","Yes","Female","1866012","null","null","learn_feedback","","","learn_feedback","20","70","out","","","","","","","","","","","","","","","","","","","","","","",""
"","","","","","canvas-keyboard-response","51","218602","0.0-12.0-4.7","2d_cat_multi_stim_exp1","2022-4-28","14:37:16","25","75","3","9","10","40","30","120","69","19","[""Other""]","Yes","Female","1866012","null","null","","","","clear_screen","","","","","","","","","","","","","","","","","","","","","","","","","",""
"","","","","","canvas-keyboard-response","52","219112","0.0-12.0-0.8","2d_cat_multi_stim_exp1","2022-4-28","14:37:16","25","75","3","9","10","40","30","120","69","19","[""Other""]","Yes","Female","1866012","null","null","","","","fixation","","","","","","","","","","","","","","","","","","","","","","","","","",""
"","","","","","canvas-keyboard-response","53","219622","0.0-12.0-1.8","2d_cat_multi_stim_exp1","2022-4-28","14:37:16","25","75","3","9","10","40","30","120","69","19","[""Other""]","Yes","Female","1866012","null","null","","","","clear_screen","","","","","","","","","","","","","","","","","","","","","","","","","",""
"","","","","","canvas-keyboard-response","54","221209","0.0-12.0-2.8","2d_cat_multi_stim_exp1","2022-4-28","14:37:16","25","75","3","9","10","40","30","120","69","19","[""Other""]","Yes","Female","1866012","1578","i","learn","","","learn_trial","25","75","in","0","0","","","","","","","","","","","","","","","","","","","","",""
"","","","","","canvas-keyboard-response","55","222220","0.0-12.0-3.8","2d_cat_multi_stim_exp1","2022-4-28","14:37:16","25","75","3","9","10","40","30","120","69","19","[""Other""]","Yes","Female","1866012","null","null","learn_feedback","","","learn_feedback","25","75","in","","","","","","","","","","","","","","","","","","","","","","",""
"","","","","","canvas-keyboard-response","56","222279","0.0-12.0-4.8","2d_cat_multi_stim_exp1","2022-4-28","14:37:16","25","75","3","9","10","40","30","120","69","19","[""Other""]","Yes","Female","1866012","null","null","","","","clear_screen","","","","","","","","","","","","","","","","","","","","","","","","","",""
"","","","","","canvas-keyboard-response","57","222788","0.0-12.0-0.9","2d_cat_multi_stim_exp1","2022-4-28","14:37:16","25","75","3","9","10","40","30","120","69","19","[""Other""]","Yes","Female","1866012","null","null","","","","fixation","","","","","","","","","","","","","","","","","","","","","","","","","",""
"","","","","","canvas-keyboard-response","58","223297","0.0-12.0-1.9","2d_cat_multi_stim_exp1","2022-4-28","14:37:16","25","75","3","9","10","40","30","120","69","19","[""Other""]","Yes","Female","1866012","null","null","","","","clear_screen","","","","","","","","","","","","","","","","","","","","","","","","","",""
"","","","","","canvas-keyboard-response","59","224410","0.0-12.0-2.9","2d_cat_multi_stim_exp1","2022-4-28","14:37:16","25","75","3","9","10","40","30","120","69","19","[""Other""]","Yes","Female","1866012","1103","i","learn","","","learn_trial","26.6667","40","out","0","1","","","","","","","","","","","","","","","","","","","","",""
"","","","","","canvas-keyboard-response","60","224919","0.0-12.0-3.9","2d_cat_multi_stim_exp1","2022-4-28","14:37:16","25","75","3","9","10","40","30","120","69","19","[""Other""]","Yes","Female","1866012","null","null","learn_feedback","","","learn_feedback","26.6667","40","out","","","","","","","","","","","","","","","","","","","","","","",""
"","","","","","canvas-keyboard-response","61","224979","0.0-12.0-4.9","2d_cat_multi_stim_exp1","2022-4-28","14:37:16","25","75","3","9","10","40","30","120","69","19","[""Other""]","Yes","Female","1866012","null","null","","","","clear_screen","","","","","","","","","","","","","","","","","","","","","","","","","",""
"","","","","","canvas-keyboard-response","62","225491","0.0-12.0-0.10","2d_cat_multi_stim_exp1","2022-4-28","14:37:16","25","75","3","9","10","40","30","120","69","19","[""Other""]","Yes","Female","1866012","null","null","","","","fixation","","","","","","","","","","","","","","","","","","","","","","","","","",""
"","","","","","canvas-keyboard-response","63","226000","0.0-12.0-1.10","2d_cat_multi_stim_exp1","2022-4-28","14:37:16","25","75","3","9","10","40","30","120","69","19","[""Other""]","Yes","Female","1866012","null","null","","","","clear_screen","","","","","","","","","","","","","","","","","","","","","","","","","",""
"","","","","","canvas-keyboard-response","64","227545","0.0-12.0-2.10","2d_cat_multi_stim_exp1","2022-4-28","14:37:16","25","75","3","9","10","40","30","120","69","19","[""Other""]","Yes","Female","1866012","1536","u","learn","","","learn_trial","25","75","in","1","1","","","","","","","","","","","","","","","","","","","","",""
"","","","","","canvas-keyboard-response","65","228055","0.0-12.0-3.10","2d_cat_multi_stim_exp1","2022-4-28","14:37:16","25","75","3","9","10","40","30","120","69","19","[""Other""]","Yes","Female","1866012","null","null","learn_feedback","","","learn_feedback","25","75","in","","","","","","","","","","","","","","","","","","","","","","",""
"","","","","","canvas-keyboard-response","66","228114","0.0-12.0-4.10","2d_cat_multi_stim_exp1","2022-4-28","14:37:16","25","75","3","9","10","40","30","120","69","19","[""Other""]","Yes","Female","1866012","null","null","","","","clear_screen","","","","","","","","","","","","","","","","","","","","","","","","","",""
"","","","","","canvas-keyboard-response","67","228622","0.0-12.0-0.11","2d_cat_multi_stim_exp1","2022-4-28","14:37:16","25","75","3","9","10","40","30","120","69","19","[""Other""]","Yes","Female","1866012","null","null","","","","fixation","","","","","","","","","","","","","","","","","","","","","","","","","",""
"","","","","","canvas-keyboard-response","68","229132","0.0-12.0-1.11","2d_cat_multi_stim_exp1","2022-4-28","14:37:16","25","75","3","9","10","40","30","120","69","19","[""Other""]","Yes","Female","1866012","null","null","","","","clear_screen","","","","","","","","","","","","","","","","","","","","","","","","","",""
"","","","","","canvas-keyboard-response","69","230257","0.0-12.0-2.11","2d_cat_multi_stim_exp1","2022-4-28","14:37:16","25","75","3","9","10","40","30","120","69","19","[""Other""]","Yes","Female","1866012","1116","u","learn","","","learn_trial","22.0121","75.8068","in","1","1","","","","","","","","","","","","","","","","","","","","",""
"","","","","","canvas-keyboard-response","70","230767","0.0-12.0-3.11","2d_cat_multi_stim_exp1","2022-4-28","14:37:16","25","75","3","9","10","40","30","120","69","19","[""Other""]","Yes","Female","1866012","null","null","learn_feedback","","","learn_feedback","22.0121","75.8068","in","","","","","","","","","","","","","","","","","","","","","","",""
"","","","","","canvas-keyboard-response","71","230826","0.0-12.0-4.11","2d_cat_multi_stim_exp1","2022-4-28","14:37:16","25","75","3","9","10","40","30","120","69","19","[""Other""]","Yes","Female","1866012","null","null","","","","clear_screen","","","","","","","","","","","","","","","","","","","","","","","","","",""
"","","","","","canvas-keyboard-response","72","231335","0.0-12.0-0.12","2d_cat_multi_stim_exp1","2022-4-28","14:37:16","25","75","3","9","10","40","30","120","69","19","[""Other""]","Yes","Female","1866012","null","null","","","","fixation","","","","","","","","","","","","","","","","","","","","","","","","","",""
"","","","","","canvas-keyboard-response","73","231844","0.0-12.0-1.12","2d_cat_multi_stim_exp1","2022-4-28","14:37:16","25","75","3","9","10","40","30","120","69","19","[""Other""]","Yes","Female","1866012","null","null","","","","clear_screen","","","","","","","","","","","","","","","","","","","","","","","","","",""
"","","","","","canvas-keyboard-response","74","232945","0.0-12.0-2.12","2d_cat_multi_stim_exp1","2022-4-28","14:37:16","25","75","3","9","10","40","30","120","69","19","[""Other""]","Yes","Female","1866012","1091","i","learn","","","learn_trial","24.3324","66.2256","in","0","0","","","","","","","","","","","","","","","","","","","","",""
"","","","","","canvas-keyboard-response","75","233955","0.0-12.0-3.12","2d_cat_multi_stim_exp1","2022-4-28","14:37:16","25","75","3","9","10","40","30","120","69","19","[""Other""]","Yes","Female","1866012","null","null","learn_feedback","","","learn_feedback","24.3324","66.2256","in","","","","","","","","","","","","","","","","","","","","","","",""
"","","","","","canvas-keyboard-response","76","234014","0.0-12.0-4.12","2d_cat_multi_stim_exp1","2022-4-28","14:37:16","25","75","3","9","10","40","30","120","69","19","[""Other""]","Yes","Female","1866012","null","null","","","","clear_screen","","","","","","","","","","","","","","","","","","","","","","","","","",""
"","","","","","canvas-keyboard-response","77","234523","0.0-12.0-0.13","2d_cat_multi_stim_exp1","2022-4-28","14:37:16","25","75","3","9","10","40","30","120","69","19","[""Other""]","Yes","Female","1866012","null","null","","","","fixation","","","","","","","","","","","","","","","","","","","","","","","","","",""
"","","","","","canvas-keyboard-response","78","235036","0.0-12.0-1.13","2d_cat_multi_stim_exp1","2022-4-28","14:37:16","25","75","3","9","10","40","30","120","69","19","[""Other""]","Yes","Female","1866012","null","null","","","","clear_screen","","","","","","","","","","","","","","","","","","","","","","","","","",""
"","","","","","canvas-keyboard-response","79","236177","0.0-12.0-2.13","2d_cat_multi_stim_exp1","2022-4-28","14:37:16","25","75","3","9","10","40","30","120","69","19","[""Other""]","Yes","Female","1866012","1134","u","learn","","","learn_trial","25","75","in","1","1","","","","","","","","","","","","","","","","","","","","",""
"","","","","","canvas-keyboard-response","80","236687","0.0-12.0-3.13","2d_cat_multi_stim_exp1","2022-4-28","14:37:16","25","75","3","9","10","40","30","120","69","19","[""Other""]","Yes","Female","1866012","null","null","learn_feedback","","","learn_feedback","25","75","in","","","","","","","","","","","","","","","","","","","","","","",""
"","","","","","canvas-keyboard-response","81","236746","0.0-12.0-4.13","2d_cat_multi_stim_exp1","2022-4-28","14:37:16","25","75","3","9","10","40","30","120","69","19","[""Other""]","Yes","Female","1866012","null","null","","","","clear_screen","","","","","","","","","","","","","","","","","","","","","","","","","",""
"","","","","","canvas-keyboard-response","82","237256","0.0-12.0-0.14","2d_cat_multi_stim_exp1","2022-4-28","14:37:16","25","75","3","9","10","40","30","120","69","19","[""Other""]","Yes","Female","1866012","null","null","","","","fixation","","","","","","","","","","","","","","","","","","","","","","","","","",""
"","","","","","canvas-keyboard-response","83","237765","0.0-12.0-1.14","2d_cat_multi_stim_exp1","2022-4-28","14:37:16","25","75","3","9","10","40","30","120","69","19","[""Other""]","Yes","Female","1866012","null","null","","","","clear_screen","","","","","","","","","","","","","","","","","","","","","","","","","",""
"","","","","","canvas-keyboard-response","84","239369","0.0-12.0-2.14","2d_cat_multi_stim_exp1","2022-4-28","14:37:16","25","75","3","9","10","40","30","120","69","19","[""Other""]","Yes","Female","1866012","1595","u","learn","","","learn_trial","27.5753","70.3839","in","1","1","","","","","","","","","","","","","","","","","","","","",""
"","","","","","canvas-keyboard-response","85","239879","0.0-12.0-3.14","2d_cat_multi_stim_exp1","2022-4-28","14:37:16","25","75","3","9","10","40","30","120","69","19","[""Other""]","Yes","Female","1866012","null","null","learn_feedback","","","learn_feedback","27.5753","70.3839","in","","","","","","","","","","","","","","","","","","","","","","",""
"","","","","","canvas-keyboard-response","86","239938","0.0-12.0-4.14","2d_cat_multi_stim_exp1","2022-4-28","14:37:16","25","75","3","9","10","40","30","120","69","19","[""Other""]","Yes","Female","1866012","null","null","","","","clear_screen","","","","","","","","","","","","","","","","","","","","","","","","","",""
"","","","","","canvas-keyboard-response","87","240447","0.0-12.0-0.15","2d_cat_multi_stim_exp1","2022-4-28","14:37:16","25","75","3","9","10","40","30","120","69","19","[""Other""]","Yes","Female","1866012","null","null","","","","fixation","","","","","","","","","","","","","","","","","","","","","","","","","",""
"","","","","","canvas-keyboard-response","88","240956","0.0-12.0-1.15","2d_cat_multi_stim_exp1","2022-4-28","14:37:16","25","75","3","9","10","40","30","120","69","19","[""Other""]","Yes","Female","1866012","null","null","","","","clear_screen","","","","","","","","","","","","","","","","","","","","","","","","","",""
"","","","","","canvas-keyboard-response","89","241786","0.0-12.0-2.15","2d_cat_multi_stim_exp1","2022-4-28","14:37:16","25","75","3","9","10","40","30","120","69","19","[""Other""]","Yes","Female","1866012","820","i","learn","","","learn_trial","29.2426","62.2721","in","0","0","","","","","","","","","","","","","","","","","","","","",""
"","","","","","canvas-keyboard-response","90","242794","0.0-12.0-3.15","2d_cat_multi_stim_exp1","2022-4-28","14:37:16","25","75","3","9","10","40","30","120","69","19","[""Other""]","Yes","Female","1866012","null","null","learn_feedback","","","learn_feedback","29.2426","62.2721","in","","","","","","","","","","","","","","","","","","","","","","",""
"","","","","","canvas-keyboard-response","91","242854","0.0-12.0-4.15","2d_cat_multi_stim_exp1","2022-4-28","14:37:16","25","75","3","9","10","40","30","120","69","19","[""Other""]","Yes","Female","1866012","null","null","","","","clear_screen","","","","","","","","","","","","","","","","","","","","","","","","","",""
"","","","","","canvas-keyboard-response","92","243362","0.0-12.0-0.16","2d_cat_multi_stim_exp1","2022-4-28","14:37:16","25","75","3","9","10","40","30","120","69","19","[""Other""]","Yes","Female","1866012","null","null","","","","fixation","","","","","","","","","","","","","","","","","","","","","","","","","",""
"","","","","","canvas-keyboard-response","93","243871","0.0-12.0-1.16","2d_cat_multi_stim_exp1","2022-4-28","14:37:16","25","75","3","9","10","40","30","120","69","19","[""Other""]","Yes","Female","1866012","null","null","","","","clear_screen","","","","","","","","","","","","","","","","","","","","","","","","","",""
"","","","","","canvas-keyboard-response","94","245442","0.0-12.0-2.16","2d_cat_multi_stim_exp1","2022-4-28","14:37:16","25","75","3","9","10","40","30","120","69","19","[""Other""]","Yes","Female","1866012","1558","i","learn","","","learn_trial","23.3333","40","out","0","1","","","","","","","","","","","","","","","","","","","","",""
"","","","","","canvas-keyboard-response","95","245951","0.0-12.0-3.16","2d_cat_multi_stim_exp1","2022-4-28","14:37:16","25","75","3","9","10","40","30","120","69","19","[""Other""]","Yes","Female","1866012","null","null","learn_feedback","","","learn_feedback","23.3333","40","out","","","","","","","","","","","","","","","","","","","","","","",""
"","","","","","canvas-keyboard-response","96","246010","0.0-12.0-4.16","2d_cat_multi_stim_exp1","2022-4-28","14:37:16","25","75","3","9","10","40","30","120","69","19","[""Other""]","Yes","Female","1866012","null","null","","","","clear_screen","","","","","","","","","","","","","","","","","","","","","","","","","",""
"","","","","","canvas-keyboard-response","97","246519","0.0-12.0-0.17","2d_cat_multi_stim_exp1","2022-4-28","14:37:16","25","75","3","9","10","40","30","120","69","19","[""Other""]","Yes","Female","1866012","null","null","","","","fixation","","","","","","","","","","","","","","","","","","","","","","","","","",""
"","","","","","canvas-keyboard-response","98","247028","0.0-12.0-1.17","2d_cat_multi_stim_exp1","2022-4-28","14:37:16","25","75","3","9","10","40","30","120","69","19","[""Other""]","Yes","Female","1866012","null","null","","","","clear_screen","","","","","","","","","","","","","","","","","","","","","","","","","",""
"","","","","","canvas-keyboard-response","99","248770","0.0-12.0-2.17","2d_cat_multi_stim_exp1","2022-4-28","14:37:16","25","75","3","9","10","40","30","120","69","19","[""Other""]","Yes","Female","1866012","1731","i","learn","","","learn_trial","20","30","out","0","1","","","","","","","","","","","","","","","","","","","","",""
"","","","","","canvas-keyboard-response","100","249280","0.0-12.0-3.17","2d_cat_multi_stim_exp1","2022-4-28","14:37:16","25","75","3","9","10","40","30","120","69","19","[""Other""]","Yes","Female","1866012","null","null","learn_feedback","","","learn_feedback","20","30","out","","","","","","","","","","","","","","","","","","","","","","",""
"","","","","","canvas-keyboard-response","101","249338","0.0-12.0-4.17","2d_cat_multi_stim_exp1","2022-4-28","14:37:16","25","75","3","9","10","40","30","120","69","19","[""Other""]","Yes","Female","1866012","null","null","","","","clear_screen","","","","","","","","","","","","","","","","","","","","","","","","","",""
"","","","","","canvas-keyboard-response","102","249847","0.0-12.0-0.18","2d_cat_multi_stim_exp1","2022-4-28","14:37:16","25","75","3","9","10","40","30","120","69","19","[""Other""]","Yes","Female","1866012","null","null","","","","fixation","","","","","","","","","","","","","","","","","","","","","","","","","",""
"","","","","","canvas-keyboard-response","103","250356","0.0-12.0-1.18","2d_cat_multi_stim_exp1","2022-4-28","14:37:16","25","75","3","9","10","40","30","120","69","19","[""Other""]","Yes","Female","1866012","null","null","","","","clear_screen","","","","","","","","","","","","","","","","","","","","","","","","","",""
"","","","","","canvas-keyboard-response","104","251529","0.0-12.0-2.18","2d_cat_multi_stim_exp1","2022-4-28","14:37:16","25","75","3","9","10","40","30","120","69","19","[""Other""]","Yes","Female","1866012","1164","u","learn","","","learn_trial","27.8087","78.1624","in","1","1","","","","","","","","","","","","","","","","","","","","",""
"","","","","","canvas-keyboard-response","105","252039","0.0-12.0-3.18","2d_cat_multi_stim_exp1","2022-4-28","14:37:16","25","75","3","9","10","40","30","120","69","19","[""Other""]","Yes","Female","1866012","null","null","learn_feedback","","","learn_feedback","27.8087","78.1624","in","","","","","","","","","","","","","","","","","","","","","","",""
"","","","","","canvas-keyboard-response","106","252098","0.0-12.0-4.18","2d_cat_multi_stim_exp1","2022-4-28","14:37:16","25","75","3","9","10","40","30","120","69","19","[""Other""]","Yes","Female","1866012","null","null","","","","clear_screen","","","","","","","","","","","","","","","","","","","","","","","","","",""
"","","","","","canvas-keyboard-response","107","252607","0.0-12.0-0.19","2d_cat_multi_stim_exp1","2022-4-28","14:37:16","25","75","3","9","10","40","30","120","69","19","[""Other""]","Yes","Female","1866012","null","null","","","","fixation","","","","","","","","","","","","","","","","","","","","","","","","","",""
"","","","","","canvas-keyboard-response","108","253117","0.0-12.0-1.19","2d_cat_multi_stim_exp1","2022-4-28","14:37:16","25","75","3","9","10","40","30","120","69","19","[""Other""]","Yes","Female","1866012","null","null","","","","clear_screen","","","","","","","","","","","","","","","","","","","","","","","","","",""
"","","","","","canvas-keyboard-response","109","254723","0.0-12.0-2.19","2d_cat_multi_stim_exp1","2022-4-28","14:37:16","25","75","3","9","10","40","30","120","69","19","[""Other""]","Yes","Female","1866012","1595","u","learn","","","learn_trial","30","60","out","1","0","","","","","","","","","","","","","","","","","","","","",""
"","","","","","canvas-keyboard-response","110","255736","0.0-12.0-3.19","2d_cat_multi_stim_exp1","2022-4-28","14:37:16","25","75","3","9","10","40","30","120","69","19","[""Other""]","Yes","Female","1866012","null","null","learn_feedback","","","learn_feedback","30","60","out","","","","","","","","","","","","","","","","","","","","","","",""
"","","","","","canvas-keyboard-response","111","255797","0.0-12.0-4.19","2d_cat_multi_stim_exp1","2022-4-28","14:37:16","25","75","3","9","10","40","30","120","69","19","[""Other""]","Yes","Female","1866012","null","null","","","","clear_screen","","","","","","","","","","","","","","","","","","","","","","","","","",""
"","","","","","canvas-keyboard-response","112","256307","0.0-12.0-0.20","2d_cat_multi_stim_exp1","2022-4-28","14:37:16","25","75","3","9","10","40","30","120","69","19","[""Other""]","Yes","Female","1866012","null","null","","","","fixation","","","","","","","","","","","","","","","","","","","","","","","","","",""
"","","","","","canvas-keyboard-response","113","256818","0.0-12.0-1.20","2d_cat_multi_stim_exp1","2022-4-28","14:37:16","25","75","3","9","10","40","30","120","69","19","[""Other""]","Yes","Female","1866012","null","null","","","","clear_screen","","","","","","","","","","","","","","","","","","","","","","","","","",""
"","","","","","canvas-keyboard-response","114","258074","0.0-12.0-2.20","2d_cat_multi_stim_exp1","2022-4-28","14:37:16","25","75","3","9","10","40","30","120","69","19","[""Other""]","Yes","Female","1866012","1246","u","learn","","","learn_trial","25","75","in","1","1","","","","","","","","","","","","","","","","","","","","",""
"","","","","","canvas-keyboard-response","115","258584","0.0-12.0-3.20","2d_cat_multi_stim_exp1","2022-4-28","14:37:16","25","75","3","9","10","40","30","120","69","19","[""Other""]","Yes","Female","1866012","null","null","learn_feedback","","","learn_feedback","25","75","in","","","","","","","","","","","","","","","","","","","","","","",""
"","","","","","canvas-keyboard-response","116","258645","0.0-12.0-4.20","2d_cat_multi_stim_exp1","2022-4-28","14:37:16","25","75","3","9","10","40","30","120","69","19","[""Other""]","Yes","Female","1866012","null","null","","","","clear_screen","","","","","","","","","","","","","","","","","","","","","","","","","",""
"","","","","","canvas-keyboard-response","117","259158","0.0-12.0-0.21","2d_cat_multi_stim_exp1","2022-4-28","14:37:16","25","75","3","9","10","40","30","120","69","19","[""Other""]","Yes","Female","1866012","null","null","","","","fixation","","","","","","","","","","","","","","","","","","","","","","","","","",""
"","","","","","canvas-keyboard-response","118","259668","0.0-12.0-1.21","2d_cat_multi_stim_exp1","2022-4-28","14:37:16","25","75","3","9","10","40","30","120","69","19","[""Other""]","Yes","Female","1866012","null","null","","","","clear_screen","","","","","","","","","","","","","","","","","","","","","","","","","",""
"","","","","","canvas-keyboard-response","119","260722","0.0-12.0-2.21","2d_cat_multi_stim_exp1","2022-4-28","14:37:16","25","75","3","9","10","40","30","120","69","19","[""Other""]","Yes","Female","1866012","1045","u","learn","","","learn_trial","27.2592","80.9214","in","1","1","","","","","","","","","","","","","","","","","","","","",""
"","","","","","canvas-keyboard-response","120","261232","0.0-12.0-3.21","2d_cat_multi_stim_exp1","2022-4-28","14:37:16","25","75","3","9","10","40","30","120","69","19","[""Other""]","Yes","Female","1866012","null","null","learn_feedback","","","learn_feedback","27.2592","80.9214","in","","","","","","","","","","","","","","","","","","","","","","",""
"","","","","","canvas-keyboard-response","121","261292","0.0-12.0-4.21","2d_cat_multi_stim_exp1","2022-4-28","14:37:16","25","75","3","9","10","40","30","120","69","19","[""Other""]","Yes","Female","1866012","null","null","","","","clear_screen","","","","","","","","","","","","","","","","","","","","","","","","","",""
"","","","","","canvas-keyboard-response","122","261802","0.0-12.0-0.22","2d_cat_multi_stim_exp1","2022-4-28","14:37:16","25","75","3","9","10","40","30","120","69","19","[""Other""]","Yes","Female","1866012","null","null","","","","fixation","","","","","","","","","","","","","","","","","","","","","","","","","",""
"","","","","","canvas-keyboard-response","123","262311","0.0-12.0-1.22","2d_cat_multi_stim_exp1","2022-4-28","14:37:16","25","75","3","9","10","40","30","120","69","19","[""Other""]","Yes","Female","1866012","null","null","","","","clear_screen","","","","","","","","","","","","","","","","","","","","","","","","","",""
"","","","","","canvas-keyboard-response","124","263186","0.0-12.0-2.22","2d_cat_multi_stim_exp1","2022-4-28","14:37:16","25","75","3","9","10","40","30","120","69","19","[""Other""]","Yes","Female","1866012","864","u","learn","","","learn_trial","22.0121","74.1932","in","1","1","","","","","","","","","","","","","","","","","","","","",""
"","","","","","canvas-keyboard-response","125","263696","0.0-12.0-3.22","2d_cat_multi_stim_exp1","2022-4-28","14:37:16","25","75","3","9","10","40","30","120","69","19","[""Other""]","Yes","Female","1866012","null","null","learn_feedback","","","learn_feedback","22.0121","74.1932","in","","","","","","","","","","","","","","","","","","","","","","",""
"","","","","","canvas-keyboard-response","126","263755","0.0-12.0-4.22","2d_cat_multi_stim_exp1","2022-4-28","14:37:16","25","75","3","9","10","40","30","120","69","19","[""Other""]","Yes","Female","1866012","null","null","","","","clear_screen","","","","","","","","","","","","","","","","","","","","","","","","","",""
"","","","","","canvas-keyboard-response","127","264264","0.0-12.0-0.23","2d_cat_multi_stim_exp1","2022-4-28","14:37:16","25","75","3","9","10","40","30","120","69","19","[""Other""]","Yes","Female","1866012","null","null","","","","fixation","","","","","","","","","","","","","","","","","","","","","","","","","",""
"","","","","","canvas-keyboard-response","128","264774","0.0-12.0-1.23","2d_cat_multi_stim_exp1","2022-4-28","14:37:16","25","75","3","9","10","40","30","120","69","19","[""Other""]","Yes","Female","1866012","null","null","","","","clear_screen","","","","","","","","","","","","","","","","","","","","","","","","","",""
"","","","","","canvas-keyboard-response","129","265834","0.0-12.0-2.23","2d_cat_multi_stim_exp1","2022-4-28","14:37:16","25","75","3","9","10","40","30","120","69","19","[""Other""]","Yes","Female","1866012","1050","u","learn","","","learn_trial","25","75","in","1","1","","","","","","","","","","","","","","","","","","","","",""
"","","","","","canvas-keyboard-response","130","266344","0.0-12.0-3.23","2d_cat_multi_stim_exp1","2022-4-28","14:37:16","25","75","3","9","10","40","30","120","69","19","[""Other""]","Yes","Female","1866012","null","null","learn_feedback","","","learn_feedback","25","75","in","","","","","","","","","","","","","","","","","","","","","","",""
"","","","","","canvas-keyboard-response","131","266402","0.0-12.0-4.23","2d_cat_multi_stim_exp1","2022-4-28","14:37:16","25","75","3","9","10","40","30","120","69","19","[""Other""]","Yes","Female","1866012","null","null","","","","clear_screen","","","","","","","","","","","","","","","","","","","","","","","","","",""
"","","","","","canvas-keyboard-response","132","266915","0.0-12.0-0.24","2d_cat_multi_stim_exp1","2022-4-28","14:37:16","25","75","3","9","10","40","30","120","69","19","[""Other""]","Yes","Female","1866012","null","null","","","","fixation","","","","","","","","","","","","","","","","","","","","","","","","","",""
"","","","","","canvas-keyboard-response","133","267424","0.0-12.0-1.24","2d_cat_multi_stim_exp1","2022-4-28","14:37:16","25","75","3","9","10","40","30","120","69","19","[""Other""]","Yes","Female","1866012","null","null","","","","clear_screen","","","","","","","","","","","","","","","","","","","","","","","","","",""
"","","","","","canvas-keyboard-response","134","268577","0.0-12.0-2.24","2d_cat_multi_stim_exp1","2022-4-28","14:37:16","25","75","3","9","10","40","30","120","69","19","[""Other""]","Yes","Female","1866012","1142","u","learn","","","learn_trial","27.9518","73.393","in","1","1","","","","","","","","","","","","","","","","","","","","",""
"","","","","","canvas-keyboard-response","135","269088","0.0-12.0-3.24","2d_cat_multi_stim_exp1","2022-4-28","14:37:16","25","75","3","9","10","40","30","120","69","19","[""Other""]","Yes","Female","1866012","null","null","learn_feedback","","","learn_feedback","27.9518","73.393","in","","","","","","","","","","","","","","","","","","","","","","",""
"","","","","","canvas-keyboard-response","136","269146","0.0-12.0-4.24","2d_cat_multi_stim_exp1","2022-4-28","14:37:16","25","75","3","9","10","40","30","120","69","19","[""Other""]","Yes","Female","1866012","null","null","","","","clear_screen","","","","","","","","","","","","","","","","","","","","","","","","","",""
"","","","","","canvas-keyboard-response","137","269656","0.0-12.0-0.25","2d_cat_multi_stim_exp1","2022-4-28","14:37:16","25","75","3","9","10","40","30","120","69","19","[""Other""]","Yes","Female","1866012","null","null","","","","fixation","","","","","","","","","","","","","","","","","","","","","","","","","",""
"","","","","","canvas-keyboard-response","138","270165","0.0-12.0-1.25","2d_cat_multi_stim_exp1","2022-4-28","14:37:16","25","75","3","9","10","40","30","120","69","19","[""Other""]","Yes","Female","1866012","null","null","","","","clear_screen","","","","","","","","","","","","","","","","","","","","","","","","","",""
"","","","","","canvas-keyboard-response","139","271434","0.0-12.0-2.25","2d_cat_multi_stim_exp1","2022-4-28","14:37:16","25","75","3","9","10","40","30","120","69","19","[""Other""]","Yes","Female","1866012","1259","i","learn","","","learn_trial","26.6667","30","out","0","1","","","","","","","","","","","","","","","","","","","","",""
"","","","","","canvas-keyboard-response","140","271943","0.0-12.0-3.25","2d_cat_multi_stim_exp1","2022-4-28","14:37:16","25","75","3","9","10","40","30","120","69","19","[""Other""]","Yes","Female","1866012","null","null","learn_feedback","","","learn_feedback","26.6667","30","out","","","","","","","","","","","","","","","","","","","","","","",""
"","","","","","canvas-keyboard-response","141","272002","0.0-12.0-4.25","2d_cat_multi_stim_exp1","2022-4-28","14:37:16","25","75","3","9","10","40","30","120","69","19","[""Other""]","Yes","Female","1866012","null","null","","","","clear_screen","","","","","","","","","","","","","","","","","","","","","","","","","",""
"","","","","","canvas-keyboard-response","142","272511","0.0-12.0-0.26","2d_cat_multi_stim_exp1","2022-4-28","14:37:16","25","75","3","9","10","40","30","120","69","19","[""Other""]","Yes","Female","1866012","null","null","","","","fixation","","","","","","","","","","","","","","","","","","","","","","","","","",""
"","","","","","canvas-keyboard-response","143","273022","0.0-12.0-1.26","2d_cat_multi_stim_exp1","2022-4-28","14:37:16","25","75","3","9","10","40","30","120","69","19","[""Other""]","Yes","Female","1866012","null","null","","","","clear_screen","","","","","","","","","","","","","","","","","","","","","","","","","",""
"","","","","","canvas-keyboard-response","144","274426","0.0-12.0-2.26","2d_cat_multi_stim_exp1","2022-4-28","14:37:16","25","75","3","9","10","40","30","120","69","19","[""Other""]","Yes","Female","1866012","1393","u","learn","","","learn_trial","25","93","in","1","1","","","","","","","","","","","","","","","","","","","","",""
"","","","","","canvas-keyboard-response","145","274936","0.0-12.0-3.26","2d_cat_multi_stim_exp1","2022-4-28","14:37:16","25","75","3","9","10","40","30","120","69","19","[""Other""]","Yes","Female","1866012","null","null","learn_feedback","","","learn_feedback","25","93","in","","","","","","","","","","","","","","","","","","","","","","",""
"","","","","","canvas-keyboard-response","146","274995","0.0-12.0-4.26","2d_cat_multi_stim_exp1","2022-4-28","14:37:16","25","75","3","9","10","40","30","120","69","19","[""Other""]","Yes","Female","1866012","null","null","","","","clear_screen","","","","","","","","","","","","","","","","","","","","","","","","","",""
"","","","","","canvas-keyboard-response","147","275504","0.0-12.0-0.27","2d_cat_multi_stim_exp1","2022-4-28","14:37:16","25","75","3","9","10","40","30","120","69","19","[""Other""]","Yes","Female","1866012","null","null","","","","fixation","","","","","","","","","","","","","","","","","","","","","","","","","",""
"","","","","","canvas-keyboard-response","148","276013","0.0-12.0-1.27","2d_cat_multi_stim_exp1","2022-4-28","14:37:16","25","75","3","9","10","40","30","120","69","19","[""Other""]","Yes","Female","1866012","null","null","","","","clear_screen","","","","","","","","","","","","","","","","","","","","","","","","","",""
"","","","","","canvas-keyboard-response","149","278177","0.0-12.0-2.27","2d_cat_multi_stim_exp1","2022-4-28","14:37:16","25","75","3","9","10","40","30","120","69","19","[""Other""]","Yes","Female","1866012","2154","i","learn","","","learn_trial","25","75","in","0","0","","","","","","","","","","","","","","","","","","","","",""
"","","","","","canvas-keyboard-response","150","279187","0.0-12.0-3.27","2d_cat_multi_stim_exp1","2022-4-28","14:37:16","25","75","3","9","10","40","30","120","69","19","[""Other""]","Yes","Female","1866012","null","null","learn_feedback","","","learn_feedback","25","75","in","","","","","","","","","","","","","","","","","","","","","","",""
"","","","","","canvas-keyboard-response","151","279246","0.0-12.0-4.27","2d_cat_multi_stim_exp1","2022-4-28","14:37:16","25","75","3","9","10","40","30","120","69","19","[""Other""]","Yes","Female","1866012","null","null","","","","clear_screen","","","","","","","","","","","","","","","","","","","","","","","","","",""
"","","","","","canvas-keyboard-response","152","279756","0.0-12.0-0.28","2d_cat_multi_stim_exp1","2022-4-28","14:37:16","25","75","3","9","10","40","30","120","69","19","[""Other""]","Yes","Female","1866012","null","null","","","","fixation","","","","","","","","","","","","","","","","","","","","","","","","","",""
"","","","","","canvas-keyboard-response","153","280265","0.0-12.0-1.28","2d_cat_multi_stim_exp1","2022-4-28","14:37:16","25","75","3","9","10","40","30","120","69","19","[""Other""]","Yes","Female","1866012","null","null","","","","clear_screen","","","","","","","","","","","","","","","","","","","","","","","","","",""
"","","","","","canvas-keyboard-response","154","281265","0.0-12.0-2.28","2d_cat_multi_stim_exp1","2022-4-28","14:37:16","25","75","3","9","10","40","30","120","69","19","[""Other""]","Yes","Female","1866012","991","u","learn","","","learn_trial","25","75","in","1","1","","","","","","","","","","","","","","","","","","","","",""
"","","","","","canvas-keyboard-response","155","281775","0.0-12.0-3.28","2d_cat_multi_stim_exp1","2022-4-28","14:37:16","25","75","3","9","10","40","30","120","69","19","[""Other""]","Yes","Female","1866012","null","null","learn_feedback","","","learn_feedback","25","75","in","","","","","","","","","","","","","","","","","","","","","","",""
"","","","","","canvas-keyboard-response","156","281835","0.0-12.0-4.28","2d_cat_multi_stim_exp1","2022-4-28","14:37:16","25","75","3","9","10","40","30","120","69","19","[""Other""]","Yes","Female","1866012","null","null","","","","clear_screen","","","","","","","","","","","","","","","","","","","","","","","","","",""
"","","","","","canvas-keyboard-response","157","282343","0.0-12.0-0.29","2d_cat_multi_stim_exp1","2022-4-28","14:37:16","25","75","3","9","10","40","30","120","69","19","[""Other""]","Yes","Female","1866012","null","null","","","","fixation","","","","","","","","","","","","","","","","","","","","","","","","","",""
"","","","","","canvas-keyboard-response","158","282853","0.0-12.0-1.29","2d_cat_multi_stim_exp1","2022-4-28","14:37:16","25","75","3","9","10","40","30","120","69","19","[""Other""]","Yes","Female","1866012","null","null","","","","clear_screen","","","","","","","","","","","","","","","","","","","","","","","","","",""
"","","","","","canvas-keyboard-response","159","284634","0.0-12.0-2.29","2d_cat_multi_stim_exp1","2022-4-28","14:37:16","25","75","3","9","10","40","30","120","69","19","[""Other""]","Yes","Female","1866012","1772","u","learn","","","learn_trial","25","75","in","1","1","","","","","","","","","","","","","","","","","","","","",""
"","","","","","canvas-keyboard-response","160","285144","0.0-12.0-3.29","2d_cat_multi_stim_exp1","2022-4-28","14:37:16","25","75","3","9","10","40","30","120","69","19","[""Other""]","Yes","Female","1866012","null","null","learn_feedback","","","learn_feedback","25","75","in","","","","","","","","","","","","","","","","","","","","","","",""
"","","","","","canvas-keyboard-response","161","285202","0.0-12.0-4.29","2d_cat_multi_stim_exp1","2022-4-28","14:37:16","25","75","3","9","10","40","30","120","69","19","[""Other""]","Yes","Female","1866012","null","null","","","","clear_screen","","","","","","","","","","","","","","","","","","","","","","","","","",""
"","","","","","canvas-keyboard-response","162","285712","0.0-12.0-0.30","2d_cat_multi_stim_exp1","2022-4-28","14:37:16","25","75","3","9","10","40","30","120","69","19","[""Other""]","Yes","Female","1866012","null","null","","","","fixation","","","","","","","","","","","","","","","","","","","","","","","","","",""
"","","","","","canvas-keyboard-response","163","286222","0.0-12.0-1.30","2d_cat_multi_stim_exp1","2022-4-28","14:37:16","25","75","3","9","10","40","30","120","69","19","[""Other""]","Yes","Female","1866012","null","null","","","","clear_screen","","","","","","","","","","","","","","","","","","","","","","","","","",""
"","","","","","canvas-keyboard-response","164","287650","0.0-12.0-2.30","2d_cat_multi_stim_exp1","2022-4-28","14:37:16","25","75","3","9","10","40","30","120","69","19","[""Other""]","Yes","Female","1866012","1416","i","learn","","","learn_trial","10","50","out","0","1","","","","","","","","","","","","","","","","","","","","",""
"","","","","","canvas-keyboard-response","165","288163","0.0-12.0-3.30","2d_cat_multi_stim_exp1","2022-4-28","14:37:16","25","75","3","9","10","40","30","120","69","19","[""Other""]","Yes","Female","1866012","null","null","learn_feedback","","","learn_feedback","10","50","out","","","","","","","","","","","","","","","","","","","","","","",""
"","","","","","canvas-keyboard-response","166","288224","0.0-12.0-4.30","2d_cat_multi_stim_exp1","2022-4-28","14:37:16","25","75","3","9","10","40","30","120","69","19","[""Other""]","Yes","Female","1866012","null","null","","","","clear_screen","","","","","","","","","","","","","","","","","","","","","","","","","",""
"","","","","","canvas-keyboard-response","167","288734","0.0-12.0-0.31","2d_cat_multi_stim_exp1","2022-4-28","14:37:16","25","75","3","9","10","40","30","120","69","19","[""Other""]","Yes","Female","1866012","null","null","","","","fixation","","","","","","","","","","","","","","","","","","","","","","","","","",""
"","","","","","canvas-keyboard-response","168","289244","0.0-12.0-1.31","2d_cat_multi_stim_exp1","2022-4-28","14:37:16","25","75","3","9","10","40","30","120","69","19","[""Other""]","Yes","Female","1866012","null","null","","","","clear_screen","","","","","","","","","","","","","","","","","","","","","","","","","",""
"","","","","","canvas-keyboard-response","169","290898","0.0-12.0-2.31","2d_cat_multi_stim_exp1","2022-4-28","14:37:16","25","75","3","9","10","40","30","120","69","19","[""Other""]","Yes","Female","1866012","1643","u","learn","","","learn_trial","26.6667","110","out","1","0","","","","","","","","","","","","","","","","","","","","",""
"","","","","","canvas-keyboard-response","170","291908","0.0-12.0-3.31","2d_cat_multi_stim_exp1","2022-4-28","14:37:16","25","75","3","9","10","40","30","120","69","19","[""Other""]","Yes","Female","1866012","null","null","learn_feedback","","","learn_feedback","26.6667","110","out","","","","","","","","","","","","","","","","","","","","","","",""
"","","","","","canvas-keyboard-response","171","291967","0.0-12.0-4.31","2d_cat_multi_stim_exp1","2022-4-28","14:37:16","25","75","3","9","10","40","30","120","69","19","[""Other""]","Yes","Female","1866012","null","null","","","","clear_screen","","","","","","","","","","","","","","","","","","","","","","","","","",""
"","","","","","canvas-keyboard-response","172","292477","0.0-12.0-0.32","2d_cat_multi_stim_exp1","2022-4-28","14:37:16","25","75","3","9","10","40","30","120","69","19","[""Other""]","Yes","Female","1866012","null","null","","","","fixation","","","","","","","","","","","","","","","","","","","","","","","","","",""
"","","","","","canvas-keyboard-response","173","292987","0.0-12.0-1.32","2d_cat_multi_stim_exp1","2022-4-28","14:37:16","25","75","3","9","10","40","30","120","69","19","[""Other""]","Yes","Female","1866012","null","null","","","","clear_screen","","","","","","","","","","","","","","","","","","","","","","","","","",""
"","","","","","canvas-keyboard-response","174","294257","0.0-12.0-2.32","2d_cat_multi_stim_exp1","2022-4-28","14:37:16","25","75","3","9","10","40","30","120","69","19","[""Other""]","Yes","Female","1866012","1259","u","learn","","","learn_trial","25","75","in","1","1","","","","","","","","","","","","","","","","","","","","",""
"","","","","","canvas-keyboard-response","175","294769","0.0-12.0-3.32","2d_cat_multi_stim_exp1","2022-4-28","14:37:16","25","75","3","9","10","40","30","120","69","19","[""Other""]","Yes","Female","1866012","null","null","learn_feedback","","","learn_feedback","25","75","in","","","","","","","","","","","","","","","","","","","","","","",""
"","","","","","canvas-keyboard-response","176","294827","0.0-12.0-4.32","2d_cat_multi_stim_exp1","2022-4-28","14:37:16","25","75","3","9","10","40","30","120","69","19","[""Other""]","Yes","Female","1866012","null","null","","","","clear_screen","","","","","","","","","","","","","","","","","","","","","","","","","",""
"","","","","","canvas-keyboard-response","177","295338","0.0-12.0-0.33","2d_cat_multi_stim_exp1","2022-4-28","14:37:16","25","75","3","9","10","40","30","120","69","19","[""Other""]","Yes","Female","1866012","null","null","","","","fixation","","","","","","","","","","","","","","","","","","","","","","","","","",""
"","","","","","canvas-keyboard-response","178","295847","0.0-12.0-1.33","2d_cat_multi_stim_exp1","2022-4-28","14:37:16","25","75","3","9","10","40","30","120","69","19","[""Other""]","Yes","Female","1866012","null","null","","","","clear_screen","","","","","","","","","","","","","","","","","","","","","","","","","",""
"","","","","","canvas-keyboard-response","179","297817","0.0-12.0-2.33","2d_cat_multi_stim_exp1","2022-4-28","14:37:16","25","75","3","9","10","40","30","120","69","19","[""Other""]","Yes","Female","1866012","1957","u","learn","","","learn_trial","25","75","in","1","1","","","","","","","","","","","","","","","","","","","","",""
"","","","","","canvas-keyboard-response","180","298328","0.0-12.0-3.33","2d_cat_multi_stim_exp1","2022-4-28","14:37:16","25","75","3","9","10","40","30","120","69","19","[""Other""]","Yes","Female","1866012","null","null","learn_feedback","","","learn_feedback","25","75","in","","","","","","","","","","","","","","","","","","","","","","",""
"","","","","","canvas-keyboard-response","181","298387","0.0-12.0-4.33","2d_cat_multi_stim_exp1","2022-4-28","14:37:16","25","75","3","9","10","40","30","120","69","19","[""Other""]","Yes","Female","1866012","null","null","","","","clear_screen","","","","","","","","","","","","","","","","","","","","","","","","","",""
"","","","","","canvas-keyboard-response","182","298896","0.0-12.0-0.34","2d_cat_multi_stim_exp1","2022-4-28","14:37:16","25","75","3","9","10","40","30","120","69","19","[""Other""]","Yes","Female","1866012","null","null","","","","fixation","","","","","","","","","","","","","","","","","","","","","","","","","",""
"","","","","","canvas-keyboard-response","183","299406","0.0-12.0-1.34","2d_cat_multi_stim_exp1","2022-4-28","14:37:16","25","75","3","9","10","40","30","120","69","19","[""Other""]","Yes","Female","1866012","null","null","","","","clear_screen","","","","","","","","","","","","","","","","","","","","","","","","","",""
"","","","","","canvas-keyboard-response","184","300897","0.0-12.0-2.34","2d_cat_multi_stim_exp1","2022-4-28","14:37:16","25","75","3","9","10","40","30","120","69","19","[""Other""]","Yes","Female","1866012","1483","i","learn","","","learn_trial","13.3333","50","out","0","1","","","","","","","","","","","","","","","","","","","","",""
"","","","","","canvas-keyboard-response","185","301407","0.0-12.0-3.34","2d_cat_multi_stim_exp1","2022-4-28","14:37:16","25","75","3","9","10","40","30","120","69","19","[""Other""]","Yes","Female","1866012","null","null","learn_feedback","","","learn_feedback","13.3333","50","out","","","","","","","","","","","","","","","","","","","","","","",""
"","","","","","canvas-keyboard-response","186","301466","0.0-12.0-4.34","2d_cat_multi_stim_exp1","2022-4-28","14:37:16","25","75","3","9","10","40","30","120","69","19","[""Other""]","Yes","Female","1866012","null","null","","","","clear_screen","","","","","","","","","","","","","","","","","","","","","","","","","",""
"","","","","","canvas-keyboard-response","187","301975","0.0-12.0-0.35","2d_cat_multi_stim_exp1","2022-4-28","14:37:16","25","75","3","9","10","40","30","120","69","19","[""Other""]","Yes","Female","1866012","null","null","","","","fixation","","","","","","","","","","","","","","","","","","","","","","","","","",""
"","","","","","canvas-keyboard-response","188","302484","0.0-12.0-1.35","2d_cat_multi_stim_exp1","2022-4-28","14:37:16","25","75","3","9","10","40","30","120","69","19","[""Other""]","Yes","Female","1866012","null","null","","","","clear_screen","","","","","","","","","","","","","","","","","","","","","","","","","",""
"","","","","","canvas-keyboard-response","189","303674","0.0-12.0-2.35","2d_cat_multi_stim_exp1","2022-4-28","14:37:16","25","75","3","9","10","40","30","120","69","19","[""Other""]","Yes","Female","1866012","1179","i","learn","","","learn_trial","26.6667","120","out","0","1","","","","","","","","","","","","","","","","","","","","",""
"","","","","","canvas-keyboard-response","190","304184","0.0-12.0-3.35","2d_cat_multi_stim_exp1","2022-4-28","14:37:16","25","75","3","9","10","40","30","120","69","19","[""Other""]","Yes","Female","1866012","null","null","learn_feedback","","","learn_feedback","26.6667","120","out","","","","","","","","","","","","","","","","","","","","","","",""
"","","","","","canvas-keyboard-response","191","304243","0.0-12.0-4.35","2d_cat_multi_stim_exp1","2022-4-28","14:37:16","25","75","3","9","10","40","30","120","69","19","[""Other""]","Yes","Female","1866012","null","null","","","","clear_screen","","","","","","","","","","","","","","","","","","","","","","","","","",""
"","","","","","canvas-keyboard-response","192","304752","0.0-12.0-0.36","2d_cat_multi_stim_exp1","2022-4-28","14:37:16","25","75","3","9","10","40","30","120","69","19","[""Other""]","Yes","Female","1866012","null","null","","","","fixation","","","","","","","","","","","","","","","","","","","","","","","","","",""
"","","","","","canvas-keyboard-response","193","305263","0.0-12.0-1.36","2d_cat_multi_stim_exp1","2022-4-28","14:37:16","25","75","3","9","10","40","30","120","69","19","[""Other""]","Yes","Female","1866012","null","null","","","","clear_screen","","","","","","","","","","","","","","","","","","","","","","","","","",""
"","","","","","canvas-keyboard-response","194","306297","0.0-12.0-2.36","2d_cat_multi_stim_exp1","2022-4-28","14:37:16","25","75","3","9","10","40","30","120","69","19","[""Other""]","Yes","Female","1866012","1021","i","learn","","","learn_trial","40","30","out","0","1","","","","","","","","","","","","","","","","","","","","",""
"","","","","","canvas-keyboard-response","195","306808","0.0-12.0-3.36","2d_cat_multi_stim_exp1","2022-4-28","14:37:16","25","75","3","9","10","40","30","120","69","19","[""Other""]","Yes","Female","1866012","null","null","learn_feedback","","","learn_feedback","40","30","out","","","","","","","","","","","","","","","","","","","","","","",""
"","","","","","canvas-keyboard-response","196","306867","0.0-12.0-4.36","2d_cat_multi_stim_exp1","2022-4-28","14:37:16","25","75","3","9","10","40","30","120","69","19","[""Other""]","Yes","Female","1866012","null","null","","","","clear_screen","","","","","","","","","","","","","","","","","","","","","","","","","",""
"","","","","","canvas-keyboard-response","197","307376","0.0-12.0-0.37","2d_cat_multi_stim_exp1","2022-4-28","14:37:16","25","75","3","9","10","40","30","120","69","19","[""Other""]","Yes","Female","1866012","null","null","","","","fixation","","","","","","","","","","","","","","","","","","","","","","","","","",""
"","","","","","canvas-keyboard-response","198","307886","0.0-12.0-1.37","2d_cat_multi_stim_exp1","2022-4-28","14:37:16","25","75","3","9","10","40","30","120","69","19","[""Other""]","Yes","Female","1866012","null","null","","","","clear_screen","","","","","","","","","","","","","","","","","","","","","","","","","",""
"","","","","","canvas-keyboard-response","199","308833","0.0-12.0-2.37","2d_cat_multi_stim_exp1","2022-4-28","14:37:16","25","75","3","9","10","40","30","120","69","19","[""Other""]","Yes","Female","1866012","937","i","learn","","","learn_trial","36.6667","50","out","0","1","","","","","","","","","","","","","","","","","","","","",""
"","","","","","canvas-keyboard-response","200","309343","0.0-12.0-3.37","2d_cat_multi_stim_exp1","2022-4-28","14:37:16","25","75","3","9","10","40","30","120","69","19","[""Other""]","Yes","Female","1866012","null","null","learn_feedback","","","learn_feedback","36.6667","50","out","","","","","","","","","","","","","","","","","","","","","","",""
"","","","","","canvas-keyboard-response","201","309403","0.0-12.0-4.37","2d_cat_multi_stim_exp1","2022-4-28","14:37:16","25","75","3","9","10","40","30","120","69","19","[""Other""]","Yes","Female","1866012","null","null","","","","clear_screen","","","","","","","","","","","","","","","","","","","","","","","","","",""
"","","","","","canvas-keyboard-response","202","309911","0.0-12.0-0.38","2d_cat_multi_stim_exp1","2022-4-28","14:37:16","25","75","3","9","10","40","30","120","69","19","[""Other""]","Yes","Female","1866012","null","null","","","","fixation","","","","","","","","","","","","","","","","","","","","","","","","","",""
"","","","","","canvas-keyboard-response","203","310421","0.0-12.0-1.38","2d_cat_multi_stim_exp1","2022-4-28","14:37:16","25","75","3","9","10","40","30","120","69","19","[""Other""]","Yes","Female","1866012","null","null","","","","clear_screen","","","","","","","","","","","","","","","","","","","","","","","","","",""
"","","","","","canvas-keyboard-response","204","311849","0.0-12.0-2.38","2d_cat_multi_stim_exp1","2022-4-28","14:37:16","25","75","3","9","10","40","30","120","69","19","[""Other""]","Yes","Female","1866012","1417","i","learn","","","learn_trial","16.6667","60","out","0","1","","","","","","","","","","","","","","","","","","","","",""
"","","","","","canvas-keyboard-response","205","312359","0.0-12.0-3.38","2d_cat_multi_stim_exp1","2022-4-28","14:37:16","25","75","3","9","10","40","30","120","69","19","[""Other""]","Yes","Female","1866012","null","null","learn_feedback","","","learn_feedback","16.6667","60","out","","","","","","","","","","","","","","","","","","","","","","",""
"","","","","","canvas-keyboard-response","206","312418","0.0-12.0-4.38","2d_cat_multi_stim_exp1","2022-4-28","14:37:16","25","75","3","9","10","40","30","120","69","19","[""Other""]","Yes","Female","1866012","null","null","","","","clear_screen","","","","","","","","","","","","","","","","","","","","","","","","","",""
"","","","","","canvas-keyboard-response","207","312927","0.0-12.0-0.39","2d_cat_multi_stim_exp1","2022-4-28","14:37:16","25","75","3","9","10","40","30","120","69","19","[""Other""]","Yes","Female","1866012","null","null","","","","fixation","","","","","","","","","","","","","","","","","","","","","","","","","",""
"","","","","","canvas-keyboard-response","208","313436","0.0-12.0-1.39","2d_cat_multi_stim_exp1","2022-4-28","14:37:16","25","75","3","9","10","40","30","120","69","19","[""Other""]","Yes","Female","1866012","null","null","","","","clear_screen","","","","","","","","","","","","","","","","","","","","","","","","","",""
"","","","","","canvas-keyboard-response","209","314713","0.0-12.0-2.39","2d_cat_multi_stim_exp1","2022-4-28","14:37:16","25","75","3","9","10","40","30","120","69","19","[""Other""]","Yes","Female","1866012","1264","u","learn","","","learn_trial","25","75","in","1","1","","","","","","","","","","","","","","","","","","","","",""
"","","","","","canvas-keyboard-response","210","315224","0.0-12.0-3.39","2d_cat_multi_stim_exp1","2022-4-28","14:37:16","25","75","3","9","10","40","30","120","69","19","[""Other""]","Yes","Female","1866012","null","null","learn_feedback","","","learn_feedback","25","75","in","","","","","","","","","","","","","","","","","","","","","","",""
"","","","","","canvas-keyboard-response","211","315282","0.0-12.0-4.39","2d_cat_multi_stim_exp1","2022-4-28","14:37:16","25","75","3","9","10","40","30","120","69","19","[""Other""]","Yes","Female","1866012","null","null","","","","clear_screen","","","","","","","","","","","","","","","","","","","","","","","","","",""
"","","","","","canvas-keyboard-response","212","315792","0.0-12.0-0.40","2d_cat_multi_stim_exp1","2022-4-28","14:37:16","25","75","3","9","10","40","30","120","69","19","[""Other""]","Yes","Female","1866012","null","null","","","","fixation","","","","","","","","","","","","","","","","","","","","","","","","","",""
"","","","","","canvas-keyboard-response","213","316301","0.0-12.0-1.40","2d_cat_multi_stim_exp1","2022-4-28","14:37:16","25","75","3","9","10","40","30","120","69","19","[""Other""]","Yes","Female","1866012","null","null","","","","clear_screen","","","","","","","","","","","","","","","","","","","","","","","","","",""
"","","","","","canvas-keyboard-response","214","317617","0.0-12.0-2.40","2d_cat_multi_stim_exp1","2022-4-28","14:37:16","25","75","3","9","10","40","30","120","69","19","[""Other""]","Yes","Female","1866012","1307","u","learn","","","learn_trial","23.3333","90","out","1","0","","","","","","","","","","","","","","","","","","","","",""
"","","","","","canvas-keyboard-response","215","318627","0.0-12.0-3.40","2d_cat_multi_stim_exp1","2022-4-28","14:37:16","25","75","3","9","10","40","30","120","69","19","[""Other""]","Yes","Female","1866012","null","null","learn_feedback","","","learn_feedback","23.3333","90","out","","","","","","","","","","","","","","","","","","","","","","",""
"","","","","","canvas-keyboard-response","216","318686","0.0-12.0-4.40","2d_cat_multi_stim_exp1","2022-4-28","14:37:16","25","75","3","9","10","40","30","120","69","19","[""Other""]","Yes","Female","1866012","null","null","","","","clear_screen","","","","","","","","","","","","","","","","","","","","","","","","","",""
"","","","","","canvas-keyboard-response","217","319195","0.0-12.0-0.41","2d_cat_multi_stim_exp1","2022-4-28","14:37:16","25","75","3","9","10","40","30","120","69","19","[""Other""]","Yes","Female","1866012","null","null","","","","fixation","","","","","","","","","","","","","","","","","","","","","","","","","",""
"","","","","","canvas-keyboard-response","218","319708","0.0-12.0-1.41","2d_cat_multi_stim_exp1","2022-4-28","14:37:16","25","75","3","9","10","40","30","120","69","19","[""Other""]","Yes","Female","1866012","null","null","","","","clear_screen","","","","","","","","","","","","","","","","","","","","","","","","","",""
"","","","","","canvas-keyboard-response","219","320809","0.0-12.0-2.41","2d_cat_multi_stim_exp1","2022-4-28","14:37:16","25","75","3","9","10","40","30","120","69","19","[""Other""]","Yes","Female","1866012","1090","i","learn","","","learn_trial","36.6667","60","out","0","1","","","","","","","","","","","","","","","","","","","","",""
"","","","","","canvas-keyboard-response","220","321321","0.0-12.0-3.41","2d_cat_multi_stim_exp1","2022-4-28","14:37:16","25","75","3","9","10","40","30","120","69","19","[""Other""]","Yes","Female","1866012","null","null","learn_feedback","","","learn_feedback","36.6667","60","out","","","","","","","","","","","","","","","","","","","","","","",""
"","","","","","canvas-keyboard-response","221","321382","0.0-12.0-4.41","2d_cat_multi_stim_exp1","2022-4-28","14:37:16","25","75","3","9","10","40","30","120","69","19","[""Other""]","Yes","Female","1866012","null","null","","","","clear_screen","","","","","","","","","","","","","","","","","","","","","","","","","",""
"","","","","","canvas-keyboard-response","222","321891","0.0-12.0-0.42","2d_cat_multi_stim_exp1","2022-4-28","14:37:16","25","75","3","9","10","40","30","120","69","19","[""Other""]","Yes","Female","1866012","null","null","","","","fixation","","","","","","","","","","","","","","","","","","","","","","","","","",""
"","","","","","canvas-keyboard-response","223","322401","0.0-12.0-1.42","2d_cat_multi_stim_exp1","2022-4-28","14:37:16","25","75","3","9","10","40","30","120","69","19","[""Other""]","Yes","Female","1866012","null","null","","","","clear_screen","","","","","","","","","","","","","","","","","","","","","","","","","",""
"","","","","","canvas-keyboard-response","224","323521","0.0-12.0-2.42","2d_cat_multi_stim_exp1","2022-4-28","14:37:16","25","75","3","9","10","40","30","120","69","19","[""Other""]","Yes","Female","1866012","1110","i","learn","","","learn_trial","40","90","out","0","1","","","","","","","","","","","","","","","","","","","","",""
"","","","","","canvas-keyboard-response","225","324031","0.0-12.0-3.42","2d_cat_multi_stim_exp1","2022-4-28","14:37:16","25","75","3","9","10","40","30","120","69","19","[""Other""]","Yes","Female","1866012","null","null","learn_feedback","","","learn_feedback","40","90","out","","","","","","","","","","","","","","","","","","","","","","",""
"","","","","","canvas-keyboard-response","226","324091","0.0-12.0-4.42","2d_cat_multi_stim_exp1","2022-4-28","14:37:16","25","75","3","9","10","40","30","120","69","19","[""Other""]","Yes","Female","1866012","null","null","","","","clear_screen","","","","","","","","","","","","","","","","","","","","","","","","","",""
"","","","","","canvas-keyboard-response","227","324601","0.0-12.0-0.43","2d_cat_multi_stim_exp1","2022-4-28","14:37:16","25","75","3","9","10","40","30","120","69","19","[""Other""]","Yes","Female","1866012","null","null","","","","fixation","","","","","","","","","","","","","","","","","","","","","","","","","",""
"","","","","","canvas-keyboard-response","228","325111","0.0-12.0-1.43","2d_cat_multi_stim_exp1","2022-4-28","14:37:16","25","75","3","9","10","40","30","120","69","19","[""Other""]","Yes","Female","1866012","null","null","","","","clear_screen","","","","","","","","","","","","","","","","","","","","","","","","","",""
"","","","","","canvas-keyboard-response","229","326689","0.0-12.0-2.43","2d_cat_multi_stim_exp1","2022-4-28","14:37:16","25","75","3","9","10","40","30","120","69","19","[""Other""]","Yes","Female","1866012","1567","i","learn","","","learn_trial","23.3473","82.5112","in","0","0","","","","","","","","","","","","","","","","","","","","",""
"","","","","","canvas-keyboard-response","230","327700","0.0-12.0-3.43","2d_cat_multi_stim_exp1","2022-4-28","14:37:16","25","75","3","9","10","40","30","120","69","19","[""Other""]","Yes","Female","1866012","null","null","learn_feedback","","","learn_feedback","23.3473","82.5112","in","","","","","","","","","","","","","","","","","","","","","","",""
"","","","","","canvas-keyboard-response","231","327759","0.0-12.0-4.43","2d_cat_multi_stim_exp1","2022-4-28","14:37:16","25","75","3","9","10","40","30","120","69","19","[""Other""]","Yes","Female","1866012","null","null","","","","clear_screen","","","","","","","","","","","","","","","","","","","","","","","","","",""
"","","","","","canvas-keyboard-response","232","328269","0.0-12.0-0.44","2d_cat_multi_stim_exp1","2022-4-28","14:37:16","25","75","3","9","10","40","30","120","69","19","[""Other""]","Yes","Female","1866012","null","null","","","","fixation","","","","","","","","","","","","","","","","","","","","","","","","","",""
"","","","","","canvas-keyboard-response","233","328779","0.0-12.0-1.44","2d_cat_multi_stim_exp1","2022-4-28","14:37:16","25","75","3","9","10","40","30","120","69","19","[""Other""]","Yes","Female","1866012","null","null","","","","clear_screen","","","","","","","","","","","","","","","","","","","","","","","","","",""
"","","","","","canvas-keyboard-response","234","330290","0.0-12.0-2.44","2d_cat_multi_stim_exp1","2022-4-28","14:37:16","25","75","3","9","10","40","30","120","69","19","[""Other""]","Yes","Female","1866012","1501","i","learn","","","learn_trial","25","75","in","0","0","","","","","","","","","","","","","","","","","","","","",""
"","","","","","canvas-keyboard-response","235","331299","0.0-12.0-3.44","2d_cat_multi_stim_exp1","2022-4-28","14:37:16","25","75","3","9","10","40","30","120","69","19","[""Other""]","Yes","Female","1866012","null","null","learn_feedback","","","learn_feedback","25","75","in","","","","","","","","","","","","","","","","","","","","","","",""
"","","","","","canvas-keyboard-response","236","331358","0.0-12.0-4.44","2d_cat_multi_stim_exp1","2022-4-28","14:37:16","25","75","3","9","10","40","30","120","69","19","[""Other""]","Yes","Female","1866012","null","null","","","","clear_screen","","","","","","","","","","","","","","","","","","","","","","","","","",""
"","","","","","canvas-keyboard-response","237","331867","0.0-12.0-0.45","2d_cat_multi_stim_exp1","2022-4-28","14:37:16","25","75","3","9","10","40","30","120","69","19","[""Other""]","Yes","Female","1866012","null","null","","","","fixation","","","","","","","","","","","","","","","","","","","","","","","","","",""
"","","","","","canvas-keyboard-response","238","332377","0.0-12.0-1.45","2d_cat_multi_stim_exp1","2022-4-28","14:37:16","25","75","3","9","10","40","30","120","69","19","[""Other""]","Yes","Female","1866012","null","null","","","","clear_screen","","","","","","","","","","","","","","","","","","","","","","","","","",""
"","","","","","canvas-keyboard-response","239","333305","0.0-12.0-2.45","2d_cat_multi_stim_exp1","2022-4-28","14:37:16","25","75","3","9","10","40","30","120","69","19","[""Other""]","Yes","Female","1866012","919","u","learn","","","learn_trial","25","75","in","1","1","","","","","","","","","","","","","","","","","","","","",""
"","","","","","canvas-keyboard-response","240","333816","0.0-12.0-3.45","2d_cat_multi_stim_exp1","2022-4-28","14:37:16","25","75","3","9","10","40","30","120","69","19","[""Other""]","Yes","Female","1866012","null","null","learn_feedback","","","learn_feedback","25","75","in","","","","","","","","","","","","","","","","","","","","","","",""
"","","","","","canvas-keyboard-response","241","333875","0.0-12.0-4.45","2d_cat_multi_stim_exp1","2022-4-28","14:37:16","25","75","3","9","10","40","30","120","69","19","[""Other""]","Yes","Female","1866012","null","null","","","","clear_screen","","","","","","","","","","","","","","","","","","","","","","","","","",""
"","","","","","canvas-keyboard-response","242","334384","0.0-12.0-0.46","2d_cat_multi_stim_exp1","2022-4-28","14:37:16","25","75","3","9","10","40","30","120","69","19","[""Other""]","Yes","Female","1866012","null","null","","","","fixation","","","","","","","","","","","","","","","","","","","","","","","","","",""
"","","","","","canvas-keyboard-response","243","334893","0.0-12.0-1.46","2d_cat_multi_stim_exp1","2022-4-28","14:37:16","25","75","3","9","10","40","30","120","69","19","[""Other""]","Yes","Female","1866012","null","null","","","","clear_screen","","","","","","","","","","","","","","","","","","","","","","","","","",""
"","","","","","canvas-keyboard-response","244","336169","0.0-12.0-2.46","2d_cat_multi_stim_exp1","2022-4-28","14:37:16","25","75","3","9","10","40","30","120","69","19","[""Other""]","Yes","Female","1866012","1265","i","learn","","","learn_trial","16.6667","100","out","0","1","","","","","","","","","","","","","","","","","","","","",""
"","","","","","canvas-keyboard-response","245","336679","0.0-12.0-3.46","2d_cat_multi_stim_exp1","2022-4-28","14:37:16","25","75","3","9","10","40","30","120","69","19","[""Other""]","Yes","Female","1866012","null","null","learn_feedback","","","learn_feedback","16.6667","100","out","","","","","","","","","","","","","","","","","","","","","","",""
"","","","","","canvas-keyboard-response","246","336739","0.0-12.0-4.46","2d_cat_multi_stim_exp1","2022-4-28","14:37:16","25","75","3","9","10","40","30","120","69","19","[""Other""]","Yes","Female","1866012","null","null","","","","clear_screen","","","","","","","","","","","","","","","","","","","","","","","","","",""
"","","","","","canvas-keyboard-response","247","337248","0.0-12.0-0.47","2d_cat_multi_stim_exp1","2022-4-28","14:37:16","25","75","3","9","10","40","30","120","69","19","[""Other""]","Yes","Female","1866012","null","null","","","","fixation","","","","","","","","","","","","","","","","","","","","","","","","","",""
"","","","","","canvas-keyboard-response","248","337757","0.0-12.0-1.47","2d_cat_multi_stim_exp1","2022-4-28","14:37:16","25","75","3","9","10","40","30","120","69","19","[""Other""]","Yes","Female","1866012","null","null","","","","clear_screen","","","","","","","","","","","","","","","","","","","","","","","","","",""
"","","","","","canvas-keyboard-response","249","338865","0.0-12.0-2.47","2d_cat_multi_stim_exp1","2022-4-28","14:37:16","25","75","3","9","10","40","30","120","69","19","[""Other""]","Yes","Female","1866012","1099","i","learn","","","learn_trial","40","60","out","0","1","","","","","","","","","","","","","","","","","","","","",""
"","","","","","canvas-keyboard-response","250","339375","0.0-12.0-3.47","2d_cat_multi_stim_exp1","2022-4-28","14:37:16","25","75","3","9","10","40","30","120","69","19","[""Other""]","Yes","Female","1866012","null","null","learn_feedback","","","learn_feedback","40","60","out","","","","","","","","","","","","","","","","","","","","","","",""
"","","","","","canvas-keyboard-response","251","339434","0.0-12.0-4.47","2d_cat_multi_stim_exp1","2022-4-28","14:37:16","25","75","3","9","10","40","30","120","69","19","[""Other""]","Yes","Female","1866012","null","null","","","","clear_screen","","","","","","","","","","","","","","","","","","","","","","","","","",""
"","","","","","canvas-keyboard-response","252","339943","0.0-12.0-0.48","2d_cat_multi_stim_exp1","2022-4-28","14:37:16","25","75","3","9","10","40","30","120","69","19","[""Other""]","Yes","Female","1866012","null","null","","","","fixation","","","","","","","","","","","","","","","","","","","","","","","","","",""
"","","","","","canvas-keyboard-response","253","340452","0.0-12.0-1.48","2d_cat_multi_stim_exp1","2022-4-28","14:37:16","25","75","3","9","10","40","30","120","69","19","[""Other""]","Yes","Female","1866012","null","null","","","","clear_screen","","","","","","","","","","","","","","","","","","","","","","","","","",""
"","","","","","canvas-keyboard-response","254","342673","0.0-12.0-2.48","2d_cat_multi_stim_exp1","2022-4-28","14:37:16","25","75","3","9","10","40","30","120","69","19","[""Other""]","Yes","Female","1866012","2206","u","learn","","","learn_trial","27.9518","76.607","in","1","1","","","","","","","","","","","","","","","","","","","","",""
"","","","","","canvas-keyboard-response","255","343183","0.0-12.0-3.48","2d_cat_multi_stim_exp1","2022-4-28","14:37:16","25","75","3","9","10","40","30","120","69","19","[""Other""]","Yes","Female","1866012","null","null","learn_feedback","","","learn_feedback","27.9518","76.607","in","","","","","","","","","","","","","","","","","","","","","","",""
"","","","","","canvas-keyboard-response","256","343243","0.0-12.0-4.48","2d_cat_multi_stim_exp1","2022-4-28","14:37:16","25","75","3","9","10","40","30","120","69","19","[""Other""]","Yes","Female","1866012","null","null","","","","clear_screen","","","","","","","","","","","","","","","","","","","","","","","","","",""
"","","","","","canvas-keyboard-response","257","343751","0.0-12.0-0.49","2d_cat_multi_stim_exp1","2022-4-28","14:37:16","25","75","3","9","10","40","30","120","69","19","[""Other""]","Yes","Female","1866012","null","null","","","","fixation","","","","","","","","","","","","","","","","","","","","","","","","","",""
"","","","","","canvas-keyboard-response","258","344260","0.0-12.0-1.49","2d_cat_multi_stim_exp1","2022-4-28","14:37:16","25","75","3","9","10","40","30","120","69","19","[""Other""]","Yes","Female","1866012","null","null","","","","clear_screen","","","","","","","","","","","","","","","","","","","","","","","","","",""
"","","","","","canvas-keyboard-response","259","346177","0.0-12.0-2.49","2d_cat_multi_stim_exp1","2022-4-28","14:37:16","25","75","3","9","10","40","30","120","69","19","[""Other""]","Yes","Female","1866012","1907","u","learn","","","learn_trial","23.8209","83.2757","in","1","1","","","","","","","","","","","","","","","","","","","","",""
"","","","","","canvas-keyboard-response","260","346687","0.0-12.0-3.49","2d_cat_multi_stim_exp1","2022-4-28","14:37:16","25","75","3","9","10","40","30","120","69","19","[""Other""]","Yes","Female","1866012","null","null","learn_feedback","","","learn_feedback","23.8209","83.2757","in","","","","","","","","","","","","","","","","","","","","","","",""
"","","","","","canvas-keyboard-response","261","346745","0.0-12.0-4.49","2d_cat_multi_stim_exp1","2022-4-28","14:37:16","25","75","3","9","10","40","30","120","69","19","[""Other""]","Yes","Female","1866012","null","null","","","","clear_screen","","","","","","","","","","","","","","","","","","","","","","","","","",""
"","","","","","canvas-keyboard-response","262","347254","0.0-12.0-0.50","2d_cat_multi_stim_exp1","2022-4-28","14:37:16","25","75","3","9","10","40","30","120","69","19","[""Other""]","Yes","Female","1866012","null","null","","","","fixation","","","","","","","","","","","","","","","","","","","","","","","","","",""
"","","","","","canvas-keyboard-response","263","347763","0.0-12.0-1.50","2d_cat_multi_stim_exp1","2022-4-28","14:37:16","25","75","3","9","10","40","30","120","69","19","[""Other""]","Yes","Female","1866012","null","null","","","","clear_screen","","","","","","","","","","","","","","","","","","","","","","","","","",""
"","","","","","canvas-keyboard-response","264","348777","0.0-12.0-2.50","2d_cat_multi_stim_exp1","2022-4-28","14:37:16","25","75","3","9","10","40","30","120","69","19","[""Other""]","Yes","Female","1866012","1003","i","learn","","","learn_trial","40","70","out","0","1","","","","","","","","","","","","","","","","","","","","",""
"","","","","","canvas-keyboard-response","265","349287","0.0-12.0-3.50","2d_cat_multi_stim_exp1","2022-4-28","14:37:16","25","75","3","9","10","40","30","120","69","19","[""Other""]","Yes","Female","1866012","null","null","learn_feedback","","","learn_feedback","40","70","out","","","","","","","","","","","","","","","","","","","","","","",""
"","","","","","canvas-keyboard-response","266","349346","0.0-12.0-4.50","2d_cat_multi_stim_exp1","2022-4-28","14:37:16","25","75","3","9","10","40","30","120","69","19","[""Other""]","Yes","Female","1866012","null","null","","","","clear_screen","","","","","","","","","","","","","","","","","","","","","","","","","",""
"","","","","","canvas-keyboard-response","267","349855","0.0-12.0-0.51","2d_cat_multi_stim_exp1","2022-4-28","14:37:16","25","75","3","9","10","40","30","120","69","19","[""Other""]","Yes","Female","1866012","null","null","","","","fixation","","","","","","","","","","","","","","","","","","","","","","","","","",""
"","","","","","canvas-keyboard-response","268","350364","0.0-12.0-1.51","2d_cat_multi_stim_exp1","2022-4-28","14:37:16","25","75","3","9","10","40","30","120","69","19","[""Other""]","Yes","Female","1866012","null","null","","","","clear_screen","","","","","","","","","","","","","","","","","","","","","","","","","",""
"","","","","","canvas-keyboard-response","269","352682","0.0-12.0-2.51","2d_cat_multi_stim_exp1","2022-4-28","14:37:16","25","75","3","9","10","40","30","120","69","19","[""Other""]","Yes","Female","1866012","2307","u","learn","","","learn_trial","25","75","in","1","1","","","","","","","","","","","","","","","","","","","","",""
"","","","","","canvas-keyboard-response","270","353195","0.0-12.0-3.51","2d_cat_multi_stim_exp1","2022-4-28","14:37:16","25","75","3","9","10","40","30","120","69","19","[""Other""]","Yes","Female","1866012","null","null","learn_feedback","","","learn_feedback","25","75","in","","","","","","","","","","","","","","","","","","","","","","",""
"","","","","","canvas-keyboard-response","271","353256","0.0-12.0-4.51","2d_cat_multi_stim_exp1","2022-4-28","14:37:16","25","75","3","9","10","40","30","120","69","19","[""Other""]","Yes","Female","1866012","null","null","","","","clear_screen","","","","","","","","","","","","","","","","","","","","","","","","","",""
"","","","","","canvas-keyboard-response","272","353767","0.0-12.0-0.52","2d_cat_multi_stim_exp1","2022-4-28","14:37:16","25","75","3","9","10","40","30","120","69","19","[""Other""]","Yes","Female","1866012","null","null","","","","fixation","","","","","","","","","","","","","","","","","","","","","","","","","",""
"","","","","","canvas-keyboard-response","273","354277","0.0-12.0-1.52","2d_cat_multi_stim_exp1","2022-4-28","14:37:16","25","75","3","9","10","40","30","120","69","19","[""Other""]","Yes","Female","1866012","null","null","","","","clear_screen","","","","","","","","","","","","","","","","","","","","","","","","","",""
"","","","","","canvas-keyboard-response","274","355849","0.0-12.0-2.52","2d_cat_multi_stim_exp1","2022-4-28","14:37:16","25","75","3","9","10","40","30","120","69","19","[""Other""]","Yes","Female","1866012","1561","u","learn","","","learn_trial","22.2971","78.905","in","1","1","","","","","","","","","","","","","","","","","","","","",""
"","","","","","canvas-keyboard-response","275","356359","0.0-12.0-3.52","2d_cat_multi_stim_exp1","2022-4-28","14:37:16","25","75","3","9","10","40","30","120","69","19","[""Other""]","Yes","Female","1866012","null","null","learn_feedback","","","learn_feedback","22.2971","78.905","in","","","","","","","","","","","","","","","","","","","","","","",""
"","","","","","canvas-keyboard-response","276","356419","0.0-12.0-4.52","2d_cat_multi_stim_exp1","2022-4-28","14:37:16","25","75","3","9","10","40","30","120","69","19","[""Other""]","Yes","Female","1866012","null","null","","","","clear_screen","","","","","","","","","","","","","","","","","","","","","","","","","",""
"","","","","","canvas-keyboard-response","277","356928","0.0-12.0-0.53","2d_cat_multi_stim_exp1","2022-4-28","14:37:16","25","75","3","9","10","40","30","120","69","19","[""Other""]","Yes","Female","1866012","null","null","","","","fixation","","","","","","","","","","","","","","","","","","","","","","","","","",""
"","","","","","canvas-keyboard-response","278","357438","0.0-12.0-1.53","2d_cat_multi_stim_exp1","2022-4-28","14:37:16","25","75","3","9","10","40","30","120","69","19","[""Other""]","Yes","Female","1866012","null","null","","","","clear_screen","","","","","","","","","","","","","","","","","","","","","","","","","",""
"","","","","","canvas-keyboard-response","279","358385","0.0-12.0-2.53","2d_cat_multi_stim_exp1","2022-4-28","14:37:16","25","75","3","9","10","40","30","120","69","19","[""Other""]","Yes","Female","1866012","937","i","learn","","","learn_trial","20","120","out","0","1","","","","","","","","","","","","","","","","","","","","",""
"","","","","","canvas-keyboard-response","280","358895","0.0-12.0-3.53","2d_cat_multi_stim_exp1","2022-4-28","14:37:16","25","75","3","9","10","40","30","120","69","19","[""Other""]","Yes","Female","1866012","null","null","learn_feedback","","","learn_feedback","20","120","out","","","","","","","","","","","","","","","","","","","","","","",""
"","","","","","canvas-keyboard-response","281","358955","0.0-12.0-4.53","2d_cat_multi_stim_exp1","2022-4-28","14:37:16","25","75","3","9","10","40","30","120","69","19","[""Other""]","Yes","Female","1866012","null","null","","","","clear_screen","","","","","","","","","","","","","","","","","","","","","","","","","",""
"","","","","","canvas-keyboard-response","282","359465","0.0-12.0-0.54","2d_cat_multi_stim_exp1","2022-4-28","14:37:16","25","75","3","9","10","40","30","120","69","19","[""Other""]","Yes","Female","1866012","null","null","","","","fixation","","","","","","","","","","","","","","","","","","","","","","","","","",""
"","","","","","canvas-keyboard-response","283","359974","0.0-12.0-1.54","2d_cat_multi_stim_exp1","2022-4-28","14:37:16","25","75","3","9","10","40","30","120","69","19","[""Other""]","Yes","Female","1866012","null","null","","","","clear_screen","","","","","","","","","","","","","","","","","","","","","","","","","",""
"","","","","","canvas-keyboard-response","284","360737","0.0-12.0-2.54","2d_cat_multi_stim_exp1","2022-4-28","14:37:16","25","75","3","9","10","40","30","120","69","19","[""Other""]","Yes","Female","1866012","754","i","learn","","","learn_trial","40","50","out","0","1","","","","","","","","","","","","","","","","","","","","",""
"","","","","","canvas-keyboard-response","285","361249","0.0-12.0-3.54","2d_cat_multi_stim_exp1","2022-4-28","14:37:16","25","75","3","9","10","40","30","120","69","19","[""Other""]","Yes","Female","1866012","null","null","learn_feedback","","","learn_feedback","40","50","out","","","","","","","","","","","","","","","","","","","","","","",""
"","","","","","canvas-keyboard-response","286","361308","0.0-12.0-4.54","2d_cat_multi_stim_exp1","2022-4-28","14:37:16","25","75","3","9","10","40","30","120","69","19","[""Other""]","Yes","Female","1866012","null","null","","","","clear_screen","","","","","","","","","","","","","","","","","","","","","","","","","",""
"","","","","","canvas-keyboard-response","287","361816","0.0-12.0-0.55","2d_cat_multi_stim_exp1","2022-4-28","14:37:16","25","75","3","9","10","40","30","120","69","19","[""Other""]","Yes","Female","1866012","null","null","","","","fixation","","","","","","","","","","","","","","","","","","","","","","","","","",""
"","","","","","canvas-keyboard-response","288","362327","0.0-12.0-1.55","2d_cat_multi_stim_exp1","2022-4-28","14:37:16","25","75","3","9","10","40","30","120","69","19","[""Other""]","Yes","Female","1866012","null","null","","","","clear_screen","","","","","","","","","","","","","","","","","","","","","","","","","",""
"","","","","","canvas-keyboard-response","289","363369","0.0-12.0-2.55","2d_cat_multi_stim_exp1","2022-4-28","14:37:16","25","75","3","9","10","40","30","120","69","19","[""Other""]","Yes","Female","1866012","1033","i","learn","","","learn_trial","20","100","out","0","1","","","","","","","","","","","","","","","","","","","","",""
"","","","","","canvas-keyboard-response","290","363878","0.0-12.0-3.55","2d_cat_multi_stim_exp1","2022-4-28","14:37:16","25","75","3","9","10","40","30","120","69","19","[""Other""]","Yes","Female","1866012","null","null","learn_feedback","","","learn_feedback","20","100","out","","","","","","","","","","","","","","","","","","","","","","",""
"","","","","","canvas-keyboard-response","291","363937","0.0-12.0-4.55","2d_cat_multi_stim_exp1","2022-4-28","14:37:16","25","75","3","9","10","40","30","120","69","19","[""Other""]","Yes","Female","1866012","null","null","","","","clear_screen","","","","","","","","","","","","","","","","","","","","","","","","","",""
"","","","","","canvas-keyboard-response","292","364447","0.0-12.0-0.56","2d_cat_multi_stim_exp1","2022-4-28","14:37:16","25","75","3","9","10","40","30","120","69","19","[""Other""]","Yes","Female","1866012","null","null","","","","fixation","","","","","","","","","","","","","","","","","","","","","","","","","",""
"","","","","","canvas-keyboard-response","293","364957","0.0-12.0-1.56","2d_cat_multi_stim_exp1","2022-4-28","14:37:16","25","75","3","9","10","40","30","120","69","19","[""Other""]","Yes","Female","1866012","null","null","","","","clear_screen","","","","","","","","","","","","","","","","","","","","","","","","","",""
"","","","","","canvas-keyboard-response","294","365873","0.0-12.0-2.56","2d_cat_multi_stim_exp1","2022-4-28","14:37:16","25","75","3","9","10","40","30","120","69","19","[""Other""]","Yes","Female","1866012","907","i","learn","","","learn_trial","40","100","out","0","1","","","","","","","","","","","","","","","","","","","","",""
"","","","","","canvas-keyboard-response","295","366384","0.0-12.0-3.56","2d_cat_multi_stim_exp1","2022-4-28","14:37:16","25","75","3","9","10","40","30","120","69","19","[""Other""]","Yes","Female","1866012","null","null","learn_feedback","","","learn_feedback","40","100","out","","","","","","","","","","","","","","","","","","","","","","",""
