"success","timeout","failed_images","failed_audio","failed_video","trial_type","trial_index","time_elapsed","internal_node_id","exp_name","date","time","angle_mean_in","radius_mean_in","angle_sd_in","radius_sd_in","angle_min_out","angle_max_out","radius_min_out","radius_max_out","sub_n","age","race","ethnicity","gender","exp_duration","rt","response","exp_trial_type","stimulus","view_history","screen_id","angle","radius","distribution","choice","correct","order","angle_a","radius_a","angle_b","radius_b","jkl_correct","transfer_trial_type","choice_set","abc_correct","tc_correct","tc_angle","tdc_a","tdc_b","tdc_c","pair","category_a","category_b","category_c","angle_c","radius_c","question_order"
"true","false","[]","[]","[]","preload","0","24","0.0-0.0","2d_cat_multi_stim_exp1","2022-4-27","10:18:1","25","75","3","9","10","40","30","120","65","21","[""Black or African-American""]","No","Female","2026255","","","","","","","","","","","","","","","","","","","","","","","","","","","","","","","",""
"","","","","","survey-html-form","1","8894","0.0-1.0","2d_cat_multi_stim_exp1","2022-4-27","10:18:1","25","75","3","9","10","40","30","120","65","21","[""Black or African-American""]","No","Female","2026255","8858","{""response"":""65""}","enter-sub-number","","","","","","","","","","","","","","","","","","","","","","","","","","","","",""
"true","","","","","fullscreen","2","11891","0.0-2.0","2d_cat_multi_stim_exp1","2022-4-27","10:18:1","25","75","3","9","10","40","30","120","65","21","[""Black or African-American""]","No","Female","2026255","","","","","","","","","","","","","","","","","","","","","","","","","","","","","","","",""
"","","","","","image-button-response","3","25387","0.0-3.0","2d_cat_multi_stim_exp1","2022-4-27","10:18:1","25","75","3","9","10","40","30","120","65","21","[""Black or African-American""]","No","Female","2026255","13487","0","","consent.png","","","","","","","","","","","","","","","","","","","","","","","","","","","",""
"","","","","","html-button-response","4","41972","0.0-4.0","2d_cat_multi_stim_exp1","2022-4-27","10:18:1","25","75","3","9","10","40","30","120","65","21","[""Black or African-American""]","No","Female","2026255","16580","0","","<div style= ""font-size:25px;"" <p> <strong> Welcome to the experiment! </strong><br> <p style=""color:#8B0000; font-size:25px;""><strong> Please do NOT exit full screen until you are done with the experiment. </strong> </p><p style=""font-size:25px;color:#8B0000;""> <strong> The experiment will be canceled and your data will be lost <br> if you try to go back or refresh the page at any point during the experiment.</strong> </p><br><p> <strong> Thanks in advance for your contribution to our research! </strong></p>","","","","","","","","","","","","","","","","","","","","","","","","","","","",""
"","","","","","instructions","5","121044","0.0-5.0","2d_cat_multi_stim_exp1","2022-4-27","10:18:1","25","75","3","9","10","40","30","120","65","21","[""Black or African-American""]","No","Female","2026255","79067","","","","[{""page_index"":0,""viewing_time"":19827},{""page_index"":1,""viewing_time"":4231},{""page_index"":2,""viewing_time"":20120},{""page_index"":3,""viewing_time"":34888}]","instructions_1","","","","","","","","","","","","","","","","","","","","","","","","","",""
"","","","","","instructions","6","124025","0.0-6.0","2d_cat_multi_stim_exp1","2022-4-27","10:18:1","25","75","3","9","10","40","30","120","65","21","[""Black or African-American""]","No","Female","2026255","2978","","","","[{""page_index"":0,""viewing_time"":2978}]","Click to see the kinds of turtles that will appear in the study.","","","","","","","","","","","","","","","","","","","","","","","","","",""
"","","","","","canvas-keyboard-response","7","139045","0.0-7.0","2d_cat_multi_stim_exp1","2022-4-27","10:18:1","25","75","3","9","10","40","30","120","65","21","[""Black or African-American""]","No","Female","2026255","null","null","","","","demo_range","","","","","","","","","","","","","","","","","","","","","","","","","",""
"","","","","","instructions","8","141707","0.0-8.0","2d_cat_multi_stim_exp1","2022-4-27","10:18:1","25","75","3","9","10","40","30","120","65","21","[""Black or African-American""]","No","Female","2026255","2159","","","","[{""page_index"":0,""viewing_time"":2158}]","Click to see some turtles in the subspecies.","","","","","","","","","","","","","","","","","","","","","","","","","",""
"","","","","","canvas-keyboard-response","9","156726","0.0-9.0","2d_cat_multi_stim_exp1","2022-4-27","10:18:1","25","75","3","9","10","40","30","120","65","21","[""Black or African-American""]","No","Female","2026255","null","null","","","","demo_in","","","","","","","","","","","","","","","","","","","","","","","","","",""
"","","","","","instructions","10","223132","0.0-10.0","2d_cat_multi_stim_exp1","2022-4-27","10:18:1","25","75","3","9","10","40","30","120","65","21","[""Black or African-American""]","No","Female","2026255","65903","","","","[{""page_index"":0,""viewing_time"":19821},{""page_index"":1,""viewing_time"":36585},{""page_index"":2,""viewing_time"":9496}]","instructions_2","","","","","","","","","","","","","","","","","","","","","","","","","",""
"","","","","","instructions","11","224580","0.0-11.0","2d_cat_multi_stim_exp1","2022-4-27","10:18:1","25","75","3","9","10","40","30","120","65","21","[""Black or African-American""]","No","Female","2026255","1441","","","","[{""page_index"":0,""viewing_time"":1441}]","Click to begin the first phase of the experiment.","","","","","","","","","","","","","","","","","","","","","","","","","",""
"","","","","","canvas-keyboard-response","12","225091","0.0-12.0-0.0","2d_cat_multi_stim_exp1","2022-4-27","10:18:1","25","75","3","9","10","40","30","120","65","21","[""Black or African-American""]","No","Female","2026255","null","null","","","","fixation","","","","","","","","","","","","","","","","","","","","","","","","","",""
"","","","","","canvas-keyboard-response","13","225605","0.0-12.0-1.0","2d_cat_multi_stim_exp1","2022-4-27","10:18:1","25","75","3","9","10","40","30","120","65","21","[""Black or African-American""]","No","Female","2026255","null","null","","","","clear_screen","","","","","","","","","","","","","","","","","","","","","","","","","",""
"","","","","","canvas-keyboard-response","14","231115","0.0-12.0-2.0","2d_cat_multi_stim_exp1","2022-4-27","10:18:1","25","75","3","9","10","40","30","120","65","21","[""Black or African-American""]","No","Female","2026255","5495","u","learn","","","learn_trial","10","50","out","1","0","","","","","","","","","","","","","","","","","","","","",""
"","","","","","canvas-keyboard-response","15","232124","0.0-12.0-3.0","2d_cat_multi_stim_exp1","2022-4-27","10:18:1","25","75","3","9","10","40","30","120","65","21","[""Black or African-American""]","No","Female","2026255","null","null","learn_feedback","","","learn_feedback","10","50","out","","","","","","","","","","","","","","","","","","","","","","",""
"","","","","","canvas-keyboard-response","16","232185","0.0-12.0-4.0","2d_cat_multi_stim_exp1","2022-4-27","10:18:1","25","75","3","9","10","40","30","120","65","21","[""Black or African-American""]","No","Female","2026255","null","null","","","","clear_screen","","","","","","","","","","","","","","","","","","","","","","","","","",""
"","","","","","canvas-keyboard-response","17","232697","0.0-12.0-0.1","2d_cat_multi_stim_exp1","2022-4-27","10:18:1","25","75","3","9","10","40","30","120","65","21","[""Black or African-American""]","No","Female","2026255","null","null","","","","fixation","","","","","","","","","","","","","","","","","","","","","","","","","",""
"","","","","","canvas-keyboard-response","18","233213","0.0-12.0-1.1","2d_cat_multi_stim_exp1","2022-4-27","10:18:1","25","75","3","9","10","40","30","120","65","21","[""Black or African-American""]","No","Female","2026255","null","null","","","","clear_screen","","","","","","","","","","","","","","","","","","","","","","","","","",""
"","","","","","canvas-keyboard-response","19","234875","0.0-12.0-2.1","2d_cat_multi_stim_exp1","2022-4-27","10:18:1","25","75","3","9","10","40","30","120","65","21","[""Black or African-American""]","No","Female","2026255","1652","u","learn","","","learn_trial","25","75","in","1","1","","","","","","","","","","","","","","","","","","","","",""
"","","","","","canvas-keyboard-response","20","235386","0.0-12.0-3.1","2d_cat_multi_stim_exp1","2022-4-27","10:18:1","25","75","3","9","10","40","30","120","65","21","[""Black or African-American""]","No","Female","2026255","null","null","learn_feedback","","","learn_feedback","25","75","in","","","","","","","","","","","","","","","","","","","","","","",""
"","","","","","canvas-keyboard-response","21","235446","0.0-12.0-4.1","2d_cat_multi_stim_exp1","2022-4-27","10:18:1","25","75","3","9","10","40","30","120","65","21","[""Black or African-American""]","No","Female","2026255","null","null","","","","clear_screen","","","","","","","","","","","","","","","","","","","","","","","","","",""
"","","","","","canvas-keyboard-response","22","235961","0.0-12.0-0.2","2d_cat_multi_stim_exp1","2022-4-27","10:18:1","25","75","3","9","10","40","30","120","65","21","[""Black or African-American""]","No","Female","2026255","null","null","","","","fixation","","","","","","","","","","","","","","","","","","","","","","","","","",""
"","","","","","canvas-keyboard-response","23","236471","0.0-12.0-1.2","2d_cat_multi_stim_exp1","2022-4-27","10:18:1","25","75","3","9","10","40","30","120","65","21","[""Black or African-American""]","No","Female","2026255","null","null","","","","clear_screen","","","","","","","","","","","","","","","","","","","","","","","","","",""
"","","","","","canvas-keyboard-response","24","240211","0.0-12.0-2.2","2d_cat_multi_stim_exp1","2022-4-27","10:18:1","25","75","3","9","10","40","30","120","65","21","[""Black or African-American""]","No","Female","2026255","3725","u","learn","","","learn_trial","26.6667","70","out","1","0","","","","","","","","","","","","","","","","","","","","",""
"","","","","","canvas-keyboard-response","25","241224","0.0-12.0-3.2","2d_cat_multi_stim_exp1","2022-4-27","10:18:1","25","75","3","9","10","40","30","120","65","21","[""Black or African-American""]","No","Female","2026255","null","null","learn_feedback","","","learn_feedback","26.6667","70","out","","","","","","","","","","","","","","","","","","","","","","",""
"","","","","","canvas-keyboard-response","26","241286","0.0-12.0-4.2","2d_cat_multi_stim_exp1","2022-4-27","10:18:1","25","75","3","9","10","40","30","120","65","21","[""Black or African-American""]","No","Female","2026255","null","null","","","","clear_screen","","","","","","","","","","","","","","","","","","","","","","","","","",""
"","","","","","canvas-keyboard-response","27","241795","0.0-12.0-0.3","2d_cat_multi_stim_exp1","2022-4-27","10:18:1","25","75","3","9","10","40","30","120","65","21","[""Black or African-American""]","No","Female","2026255","null","null","","","","fixation","","","","","","","","","","","","","","","","","","","","","","","","","",""
"","","","","","canvas-keyboard-response","28","242307","0.0-12.0-1.3","2d_cat_multi_stim_exp1","2022-4-27","10:18:1","25","75","3","9","10","40","30","120","65","21","[""Black or African-American""]","No","Female","2026255","null","null","","","","clear_screen","","","","","","","","","","","","","","","","","","","","","","","","","",""
"","","","","","canvas-keyboard-response","29","243459","0.0-12.0-2.3","2d_cat_multi_stim_exp1","2022-4-27","10:18:1","25","75","3","9","10","40","30","120","65","21","[""Black or African-American""]","No","Female","2026255","1140","i","learn","","","learn_trial","40","40","out","0","1","","","","","","","","","","","","","","","","","","","","",""
"","","","","","canvas-keyboard-response","30","243969","0.0-12.0-3.3","2d_cat_multi_stim_exp1","2022-4-27","10:18:1","25","75","3","9","10","40","30","120","65","21","[""Black or African-American""]","No","Female","2026255","null","null","learn_feedback","","","learn_feedback","40","40","out","","","","","","","","","","","","","","","","","","","","","","",""
"","","","","","canvas-keyboard-response","31","244030","0.0-12.0-4.3","2d_cat_multi_stim_exp1","2022-4-27","10:18:1","25","75","3","9","10","40","30","120","65","21","[""Black or African-American""]","No","Female","2026255","null","null","","","","clear_screen","","","","","","","","","","","","","","","","","","","","","","","","","",""
"","","","","","canvas-keyboard-response","32","244541","0.0-12.0-0.4","2d_cat_multi_stim_exp1","2022-4-27","10:18:1","25","75","3","9","10","40","30","120","65","21","[""Black or African-American""]","No","Female","2026255","null","null","","","","fixation","","","","","","","","","","","","","","","","","","","","","","","","","",""
"","","","","","canvas-keyboard-response","33","245056","0.0-12.0-1.4","2d_cat_multi_stim_exp1","2022-4-27","10:18:1","25","75","3","9","10","40","30","120","65","21","[""Black or African-American""]","No","Female","2026255","null","null","","","","clear_screen","","","","","","","","","","","","","","","","","","","","","","","","","",""
"","","","","","canvas-keyboard-response","34","245946","0.0-12.0-2.4","2d_cat_multi_stim_exp1","2022-4-27","10:18:1","25","75","3","9","10","40","30","120","65","21","[""Black or African-American""]","No","Female","2026255","880","u","learn","","","learn_trial","25","75","in","1","1","","","","","","","","","","","","","","","","","","","","",""
"","","","","","canvas-keyboard-response","35","246455","0.0-12.0-3.4","2d_cat_multi_stim_exp1","2022-4-27","10:18:1","25","75","3","9","10","40","30","120","65","21","[""Black or African-American""]","No","Female","2026255","null","null","learn_feedback","","","learn_feedback","25","75","in","","","","","","","","","","","","","","","","","","","","","","",""
"","","","","","canvas-keyboard-response","36","246520","0.0-12.0-4.4","2d_cat_multi_stim_exp1","2022-4-27","10:18:1","25","75","3","9","10","40","30","120","65","21","[""Black or African-American""]","No","Female","2026255","null","null","","","","clear_screen","","","","","","","","","","","","","","","","","","","","","","","","","",""
"","","","","","canvas-keyboard-response","37","247032","0.0-12.0-0.5","2d_cat_multi_stim_exp1","2022-4-27","10:18:1","25","75","3","9","10","40","30","120","65","21","[""Black or African-American""]","No","Female","2026255","null","null","","","","fixation","","","","","","","","","","","","","","","","","","","","","","","","","",""
"","","","","","canvas-keyboard-response","38","247543","0.0-12.0-1.5","2d_cat_multi_stim_exp1","2022-4-27","10:18:1","25","75","3","9","10","40","30","120","65","21","[""Black or African-American""]","No","Female","2026255","null","null","","","","clear_screen","","","","","","","","","","","","","","","","","","","","","","","","","",""
"","","","","","canvas-keyboard-response","39","248554","0.0-12.0-2.5","2d_cat_multi_stim_exp1","2022-4-27","10:18:1","25","75","3","9","10","40","30","120","65","21","[""Black or African-American""]","No","Female","2026255","1000","i","learn","","","learn_trial","26.6667","80","out","0","1","","","","","","","","","","","","","","","","","","","","",""
"","","","","","canvas-keyboard-response","40","249065","0.0-12.0-3.5","2d_cat_multi_stim_exp1","2022-4-27","10:18:1","25","75","3","9","10","40","30","120","65","21","[""Black or African-American""]","No","Female","2026255","null","null","learn_feedback","","","learn_feedback","26.6667","80","out","","","","","","","","","","","","","","","","","","","","","","",""
"","","","","","canvas-keyboard-response","41","249129","0.0-12.0-4.5","2d_cat_multi_stim_exp1","2022-4-27","10:18:1","25","75","3","9","10","40","30","120","65","21","[""Black or African-American""]","No","Female","2026255","null","null","","","","clear_screen","","","","","","","","","","","","","","","","","","","","","","","","","",""
"","","","","","canvas-keyboard-response","42","249639","0.0-12.0-0.6","2d_cat_multi_stim_exp1","2022-4-27","10:18:1","25","75","3","9","10","40","30","120","65","21","[""Black or African-American""]","No","Female","2026255","null","null","","","","fixation","","","","","","","","","","","","","","","","","","","","","","","","","",""
"","","","","","canvas-keyboard-response","43","250149","0.0-12.0-1.6","2d_cat_multi_stim_exp1","2022-4-27","10:18:1","25","75","3","9","10","40","30","120","65","21","[""Black or African-American""]","No","Female","2026255","null","null","","","","clear_screen","","","","","","","","","","","","","","","","","","","","","","","","","",""
"","","","","","canvas-keyboard-response","44","251067","0.0-12.0-2.6","2d_cat_multi_stim_exp1","2022-4-27","10:18:1","25","75","3","9","10","40","30","120","65","21","[""Black or African-American""]","No","Female","2026255","907","i","learn","","","learn_trial","26.6667","30","out","0","1","","","","","","","","","","","","","","","","","","","","",""
"","","","","","canvas-keyboard-response","45","251576","0.0-12.0-3.6","2d_cat_multi_stim_exp1","2022-4-27","10:18:1","25","75","3","9","10","40","30","120","65","21","[""Black or African-American""]","No","Female","2026255","null","null","learn_feedback","","","learn_feedback","26.6667","30","out","","","","","","","","","","","","","","","","","","","","","","",""
"","","","","","canvas-keyboard-response","46","251637","0.0-12.0-4.6","2d_cat_multi_stim_exp1","2022-4-27","10:18:1","25","75","3","9","10","40","30","120","65","21","[""Black or African-American""]","No","Female","2026255","null","null","","","","clear_screen","","","","","","","","","","","","","","","","","","","","","","","","","",""
"","","","","","canvas-keyboard-response","47","252147","0.0-12.0-0.7","2d_cat_multi_stim_exp1","2022-4-27","10:18:1","25","75","3","9","10","40","30","120","65","21","[""Black or African-American""]","No","Female","2026255","null","null","","","","fixation","","","","","","","","","","","","","","","","","","","","","","","","","",""
"","","","","","canvas-keyboard-response","48","252661","0.0-12.0-1.7","2d_cat_multi_stim_exp1","2022-4-27","10:18:1","25","75","3","9","10","40","30","120","65","21","[""Black or African-American""]","No","Female","2026255","null","null","","","","clear_screen","","","","","","","","","","","","","","","","","","","","","","","","","",""
"","","","","","canvas-keyboard-response","49","253747","0.0-12.0-2.7","2d_cat_multi_stim_exp1","2022-4-27","10:18:1","25","75","3","9","10","40","30","120","65","21","[""Black or African-American""]","No","Female","2026255","1073","u","learn","","","learn_trial","25","75","in","1","1","","","","","","","","","","","","","","","","","","","","",""
"","","","","","canvas-keyboard-response","50","254263","0.0-12.0-3.7","2d_cat_multi_stim_exp1","2022-4-27","10:18:1","25","75","3","9","10","40","30","120","65","21","[""Black or African-American""]","No","Female","2026255","null","null","learn_feedback","","","learn_feedback","25","75","in","","","","","","","","","","","","","","","","","","","","","","",""
"","","","","","canvas-keyboard-response","51","254327","0.0-12.0-4.7","2d_cat_multi_stim_exp1","2022-4-27","10:18:1","25","75","3","9","10","40","30","120","65","21","[""Black or African-American""]","No","Female","2026255","null","null","","","","clear_screen","","","","","","","","","","","","","","","","","","","","","","","","","",""
"","","","","","canvas-keyboard-response","52","254836","0.0-12.0-0.8","2d_cat_multi_stim_exp1","2022-4-27","10:18:1","25","75","3","9","10","40","30","120","65","21","[""Black or African-American""]","No","Female","2026255","null","null","","","","fixation","","","","","","","","","","","","","","","","","","","","","","","","","",""
"","","","","","canvas-keyboard-response","53","255352","0.0-12.0-1.8","2d_cat_multi_stim_exp1","2022-4-27","10:18:1","25","75","3","9","10","40","30","120","65","21","[""Black or African-American""]","No","Female","2026255","null","null","","","","clear_screen","","","","","","","","","","","","","","","","","","","","","","","","","",""
"","","","","","canvas-keyboard-response","54","256091","0.0-12.0-2.8","2d_cat_multi_stim_exp1","2022-4-27","10:18:1","25","75","3","9","10","40","30","120","65","21","[""Black or African-American""]","No","Female","2026255","725","i","learn","","","learn_trial","20.7574","62.2721","in","0","0","","","","","","","","","","","","","","","","","","","","",""
"","","","","","canvas-keyboard-response","55","257102","0.0-12.0-3.8","2d_cat_multi_stim_exp1","2022-4-27","10:18:1","25","75","3","9","10","40","30","120","65","21","[""Black or African-American""]","No","Female","2026255","null","null","learn_feedback","","","learn_feedback","20.7574","62.2721","in","","","","","","","","","","","","","","","","","","","","","","",""
"","","","","","canvas-keyboard-response","56","257167","0.0-12.0-4.8","2d_cat_multi_stim_exp1","2022-4-27","10:18:1","25","75","3","9","10","40","30","120","65","21","[""Black or African-American""]","No","Female","2026255","null","null","","","","clear_screen","","","","","","","","","","","","","","","","","","","","","","","","","",""
"","","","","","canvas-keyboard-response","57","257679","0.0-12.0-0.9","2d_cat_multi_stim_exp1","2022-4-27","10:18:1","25","75","3","9","10","40","30","120","65","21","[""Black or African-American""]","No","Female","2026255","null","null","","","","fixation","","","","","","","","","","","","","","","","","","","","","","","","","",""
"","","","","","canvas-keyboard-response","58","258189","0.0-12.0-1.9","2d_cat_multi_stim_exp1","2022-4-27","10:18:1","25","75","3","9","10","40","30","120","65","21","[""Black or African-American""]","No","Female","2026255","null","null","","","","clear_screen","","","","","","","","","","","","","","","","","","","","","","","","","",""
"","","","","","canvas-keyboard-response","59","259498","0.0-12.0-2.9","2d_cat_multi_stim_exp1","2022-4-27","10:18:1","25","75","3","9","10","40","30","120","65","21","[""Black or African-American""]","No","Female","2026255","1296","u","learn","","","learn_trial","23.8209","83.2757","in","1","1","","","","","","","","","","","","","","","","","","","","",""
"","","","","","canvas-keyboard-response","60","260011","0.0-12.0-3.9","2d_cat_multi_stim_exp1","2022-4-27","10:18:1","25","75","3","9","10","40","30","120","65","21","[""Black or African-American""]","No","Female","2026255","null","null","learn_feedback","","","learn_feedback","23.8209","83.2757","in","","","","","","","","","","","","","","","","","","","","","","",""
"","","","","","canvas-keyboard-response","61","260074","0.0-12.0-4.9","2d_cat_multi_stim_exp1","2022-4-27","10:18:1","25","75","3","9","10","40","30","120","65","21","[""Black or African-American""]","No","Female","2026255","null","null","","","","clear_screen","","","","","","","","","","","","","","","","","","","","","","","","","",""
"","","","","","canvas-keyboard-response","62","260583","0.0-12.0-0.10","2d_cat_multi_stim_exp1","2022-4-27","10:18:1","25","75","3","9","10","40","30","120","65","21","[""Black or African-American""]","No","Female","2026255","null","null","","","","fixation","","","","","","","","","","","","","","","","","","","","","","","","","",""
"","","","","","canvas-keyboard-response","63","261096","0.0-12.0-1.10","2d_cat_multi_stim_exp1","2022-4-27","10:18:1","25","75","3","9","10","40","30","120","65","21","[""Black or African-American""]","No","Female","2026255","null","null","","","","clear_screen","","","","","","","","","","","","","","","","","","","","","","","","","",""
"","","","","","canvas-keyboard-response","64","264611","0.0-12.0-2.10","2d_cat_multi_stim_exp1","2022-4-27","10:18:1","25","75","3","9","10","40","30","120","65","21","[""Black or African-American""]","No","Female","2026255","3503","i","learn","","","learn_trial","22.2971","71.095","in","0","0","","","","","","","","","","","","","","","","","","","","",""
"","","","","","canvas-keyboard-response","65","265623","0.0-12.0-3.10","2d_cat_multi_stim_exp1","2022-4-27","10:18:1","25","75","3","9","10","40","30","120","65","21","[""Black or African-American""]","No","Female","2026255","null","null","learn_feedback","","","learn_feedback","22.2971","71.095","in","","","","","","","","","","","","","","","","","","","","","","",""
"","","","","","canvas-keyboard-response","66","265687","0.0-12.0-4.10","2d_cat_multi_stim_exp1","2022-4-27","10:18:1","25","75","3","9","10","40","30","120","65","21","[""Black or African-American""]","No","Female","2026255","null","null","","","","clear_screen","","","","","","","","","","","","","","","","","","","","","","","","","",""
"","","","","","canvas-keyboard-response","67","266200","0.0-12.0-0.11","2d_cat_multi_stim_exp1","2022-4-27","10:18:1","25","75","3","9","10","40","30","120","65","21","[""Black or African-American""]","No","Female","2026255","null","null","","","","fixation","","","","","","","","","","","","","","","","","","","","","","","","","",""
"","","","","","canvas-keyboard-response","68","266716","0.0-12.0-1.11","2d_cat_multi_stim_exp1","2022-4-27","10:18:1","25","75","3","9","10","40","30","120","65","21","[""Black or African-American""]","No","Female","2026255","null","null","","","","clear_screen","","","","","","","","","","","","","","","","","","","","","","","","","",""
"","","","","","canvas-keyboard-response","69","268650","0.0-12.0-2.11","2d_cat_multi_stim_exp1","2022-4-27","10:18:1","25","75","3","9","10","40","30","120","65","21","[""Black or African-American""]","No","Female","2026255","1923","u","learn","","","learn_trial","36.6667","50","out","1","0","","","","","","","","","","","","","","","","","","","","",""
"","","","","","canvas-keyboard-response","70","269661","0.0-12.0-3.11","2d_cat_multi_stim_exp1","2022-4-27","10:18:1","25","75","3","9","10","40","30","120","65","21","[""Black or African-American""]","No","Female","2026255","null","null","learn_feedback","","","learn_feedback","36.6667","50","out","","","","","","","","","","","","","","","","","","","","","","",""
"","","","","","canvas-keyboard-response","71","269724","0.0-12.0-4.11","2d_cat_multi_stim_exp1","2022-4-27","10:18:1","25","75","3","9","10","40","30","120","65","21","[""Black or African-American""]","No","Female","2026255","null","null","","","","clear_screen","","","","","","","","","","","","","","","","","","","","","","","","","",""
"","","","","","canvas-keyboard-response","72","270235","0.0-12.0-0.12","2d_cat_multi_stim_exp1","2022-4-27","10:18:1","25","75","3","9","10","40","30","120","65","21","[""Black or African-American""]","No","Female","2026255","null","null","","","","fixation","","","","","","","","","","","","","","","","","","","","","","","","","",""
"","","","","","canvas-keyboard-response","73","270746","0.0-12.0-1.12","2d_cat_multi_stim_exp1","2022-4-27","10:18:1","25","75","3","9","10","40","30","120","65","21","[""Black or African-American""]","No","Female","2026255","null","null","","","","clear_screen","","","","","","","","","","","","","","","","","","","","","","","","","",""
"","","","","","canvas-keyboard-response","74","271787","0.0-12.0-2.12","2d_cat_multi_stim_exp1","2022-4-27","10:18:1","25","75","3","9","10","40","30","120","65","21","[""Black or African-American""]","No","Female","2026255","1032","i","learn","","","learn_trial","33.3333","60","out","0","1","","","","","","","","","","","","","","","","","","","","",""
"","","","","","canvas-keyboard-response","75","272299","0.0-12.0-3.12","2d_cat_multi_stim_exp1","2022-4-27","10:18:1","25","75","3","9","10","40","30","120","65","21","[""Black or African-American""]","No","Female","2026255","null","null","learn_feedback","","","learn_feedback","33.3333","60","out","","","","","","","","","","","","","","","","","","","","","","",""
"","","","","","canvas-keyboard-response","76","272363","0.0-12.0-4.12","2d_cat_multi_stim_exp1","2022-4-27","10:18:1","25","75","3","9","10","40","30","120","65","21","[""Black or African-American""]","No","Female","2026255","null","null","","","","clear_screen","","","","","","","","","","","","","","","","","","","","","","","","","",""
"","","","","","canvas-keyboard-response","77","272874","0.0-12.0-0.13","2d_cat_multi_stim_exp1","2022-4-27","10:18:1","25","75","3","9","10","40","30","120","65","21","[""Black or African-American""]","No","Female","2026255","null","null","","","","fixation","","","","","","","","","","","","","","","","","","","","","","","","","",""
"","","","","","canvas-keyboard-response","78","273389","0.0-12.0-1.13","2d_cat_multi_stim_exp1","2022-4-27","10:18:1","25","75","3","9","10","40","30","120","65","21","[""Black or African-American""]","No","Female","2026255","null","null","","","","clear_screen","","","","","","","","","","","","","","","","","","","","","","","","","",""
"","","","","","canvas-keyboard-response","79","274602","0.0-12.0-2.13","2d_cat_multi_stim_exp1","2022-4-27","10:18:1","25","75","3","9","10","40","30","120","65","21","[""Black or African-American""]","No","Female","2026255","1202","i","learn","","","learn_trial","10","110","out","0","1","","","","","","","","","","","","","","","","","","","","",""
"","","","","","canvas-keyboard-response","80","275114","0.0-12.0-3.13","2d_cat_multi_stim_exp1","2022-4-27","10:18:1","25","75","3","9","10","40","30","120","65","21","[""Black or African-American""]","No","Female","2026255","null","null","learn_feedback","","","learn_feedback","10","110","out","","","","","","","","","","","","","","","","","","","","","","",""
"","","","","","canvas-keyboard-response","81","275174","0.0-12.0-4.13","2d_cat_multi_stim_exp1","2022-4-27","10:18:1","25","75","3","9","10","40","30","120","65","21","[""Black or African-American""]","No","Female","2026255","null","null","","","","clear_screen","","","","","","","","","","","","","","","","","","","","","","","","","",""
"","","","","","canvas-keyboard-response","82","275683","0.0-12.0-0.14","2d_cat_multi_stim_exp1","2022-4-27","10:18:1","25","75","3","9","10","40","30","120","65","21","[""Black or African-American""]","No","Female","2026255","null","null","","","","fixation","","","","","","","","","","","","","","","","","","","","","","","","","",""
"","","","","","canvas-keyboard-response","83","276195","0.0-12.0-1.14","2d_cat_multi_stim_exp1","2022-4-27","10:18:1","25","75","3","9","10","40","30","120","65","21","[""Black or African-American""]","No","Female","2026255","null","null","","","","clear_screen","","","","","","","","","","","","","","","","","","","","","","","","","",""
"","","","","","canvas-keyboard-response","84","277146","0.0-12.0-2.14","2d_cat_multi_stim_exp1","2022-4-27","10:18:1","25","75","3","9","10","40","30","120","65","21","[""Black or African-American""]","No","Female","2026255","943","u","learn","","","learn_trial","27.2592","69.0786","in","1","1","","","","","","","","","","","","","","","","","","","","",""
"","","","","","canvas-keyboard-response","85","277657","0.0-12.0-3.14","2d_cat_multi_stim_exp1","2022-4-27","10:18:1","25","75","3","9","10","40","30","120","65","21","[""Black or African-American""]","No","Female","2026255","null","null","learn_feedback","","","learn_feedback","27.2592","69.0786","in","","","","","","","","","","","","","","","","","","","","","","",""
"","","","","","canvas-keyboard-response","86","277717","0.0-12.0-4.14","2d_cat_multi_stim_exp1","2022-4-27","10:18:1","25","75","3","9","10","40","30","120","65","21","[""Black or African-American""]","No","Female","2026255","null","null","","","","clear_screen","","","","","","","","","","","","","","","","","","","","","","","","","",""
"","","","","","canvas-keyboard-response","87","278226","0.0-12.0-0.15","2d_cat_multi_stim_exp1","2022-4-27","10:18:1","25","75","3","9","10","40","30","120","65","21","[""Black or African-American""]","No","Female","2026255","null","null","","","","fixation","","","","","","","","","","","","","","","","","","","","","","","","","",""
"","","","","","canvas-keyboard-response","88","278743","0.0-12.0-1.15","2d_cat_multi_stim_exp1","2022-4-27","10:18:1","25","75","3","9","10","40","30","120","65","21","[""Black or African-American""]","No","Female","2026255","null","null","","","","clear_screen","","","","","","","","","","","","","","","","","","","","","","","","","",""
"","","","","","canvas-keyboard-response","89","279546","0.0-12.0-2.15","2d_cat_multi_stim_exp1","2022-4-27","10:18:1","25","75","3","9","10","40","30","120","65","21","[""Black or African-American""]","No","Female","2026255","795","i","learn","","","learn_trial","13.3333","50","out","0","1","","","","","","","","","","","","","","","","","","","","",""
"","","","","","canvas-keyboard-response","90","280059","0.0-12.0-3.15","2d_cat_multi_stim_exp1","2022-4-27","10:18:1","25","75","3","9","10","40","30","120","65","21","[""Black or African-American""]","No","Female","2026255","null","null","learn_feedback","","","learn_feedback","13.3333","50","out","","","","","","","","","","","","","","","","","","","","","","",""
"","","","","","canvas-keyboard-response","91","280119","0.0-12.0-4.15","2d_cat_multi_stim_exp1","2022-4-27","10:18:1","25","75","3","9","10","40","30","120","65","21","[""Black or African-American""]","No","Female","2026255","null","null","","","","clear_screen","","","","","","","","","","","","","","","","","","","","","","","","","",""
"","","","","","canvas-keyboard-response","92","280633","0.0-12.0-0.16","2d_cat_multi_stim_exp1","2022-4-27","10:18:1","25","75","3","9","10","40","30","120","65","21","[""Black or African-American""]","No","Female","2026255","null","null","","","","fixation","","","","","","","","","","","","","","","","","","","","","","","","","",""
"","","","","","canvas-keyboard-response","93","281144","0.0-12.0-1.16","2d_cat_multi_stim_exp1","2022-4-27","10:18:1","25","75","3","9","10","40","30","120","65","21","[""Black or African-American""]","No","Female","2026255","null","null","","","","clear_screen","","","","","","","","","","","","","","","","","","","","","","","","","",""
"","","","","","canvas-keyboard-response","94","282075","0.0-12.0-2.16","2d_cat_multi_stim_exp1","2022-4-27","10:18:1","25","75","3","9","10","40","30","120","65","21","[""Black or African-American""]","No","Female","2026255","918","i","learn","","","learn_trial","26.6667","40","out","0","1","","","","","","","","","","","","","","","","","","","","",""
"","","","","","canvas-keyboard-response","95","282584","0.0-12.0-3.16","2d_cat_multi_stim_exp1","2022-4-27","10:18:1","25","75","3","9","10","40","30","120","65","21","[""Black or African-American""]","No","Female","2026255","null","null","learn_feedback","","","learn_feedback","26.6667","40","out","","","","","","","","","","","","","","","","","","","","","","",""
"","","","","","canvas-keyboard-response","96","282644","0.0-12.0-4.16","2d_cat_multi_stim_exp1","2022-4-27","10:18:1","25","75","3","9","10","40","30","120","65","21","[""Black or African-American""]","No","Female","2026255","null","null","","","","clear_screen","","","","","","","","","","","","","","","","","","","","","","","","","",""
"","","","","","canvas-keyboard-response","97","283152","0.0-12.0-0.17","2d_cat_multi_stim_exp1","2022-4-27","10:18:1","25","75","3","9","10","40","30","120","65","21","[""Black or African-American""]","No","Female","2026255","null","null","","","","fixation","","","","","","","","","","","","","","","","","","","","","","","","","",""
"","","","","","canvas-keyboard-response","98","283664","0.0-12.0-1.17","2d_cat_multi_stim_exp1","2022-4-27","10:18:1","25","75","3","9","10","40","30","120","65","21","[""Black or African-American""]","No","Female","2026255","null","null","","","","clear_screen","","","","","","","","","","","","","","","","","","","","","","","","","",""
"","","","","","canvas-keyboard-response","99","284410","0.0-12.0-2.17","2d_cat_multi_stim_exp1","2022-4-27","10:18:1","25","75","3","9","10","40","30","120","65","21","[""Black or African-American""]","No","Female","2026255","735","u","learn","","","learn_trial","31","75","in","1","1","","","","","","","","","","","","","","","","","","","","",""
"","","","","","canvas-keyboard-response","100","284921","0.0-12.0-3.17","2d_cat_multi_stim_exp1","2022-4-27","10:18:1","25","75","3","9","10","40","30","120","65","21","[""Black or African-American""]","No","Female","2026255","null","null","learn_feedback","","","learn_feedback","31","75","in","","","","","","","","","","","","","","","","","","","","","","",""
"","","","","","canvas-keyboard-response","101","284980","0.0-12.0-4.17","2d_cat_multi_stim_exp1","2022-4-27","10:18:1","25","75","3","9","10","40","30","120","65","21","[""Black or African-American""]","No","Female","2026255","null","null","","","","clear_screen","","","","","","","","","","","","","","","","","","","","","","","","","",""
"","","","","","canvas-keyboard-response","102","285490","0.0-12.0-0.18","2d_cat_multi_stim_exp1","2022-4-27","10:18:1","25","75","3","9","10","40","30","120","65","21","[""Black or African-American""]","No","Female","2026255","null","null","","","","fixation","","","","","","","","","","","","","","","","","","","","","","","","","",""
"","","","","","canvas-keyboard-response","103","286004","0.0-12.0-1.18","2d_cat_multi_stim_exp1","2022-4-27","10:18:1","25","75","3","9","10","40","30","120","65","21","[""Black or African-American""]","No","Female","2026255","null","null","","","","clear_screen","","","","","","","","","","","","","","","","","","","","","","","","","",""
"","","","","","canvas-keyboard-response","104","287387","0.0-12.0-2.18","2d_cat_multi_stim_exp1","2022-4-27","10:18:1","25","75","3","9","10","40","30","120","65","21","[""Black or African-American""]","No","Female","2026255","1372","i","learn","","","learn_trial","10","60","out","0","1","","","","","","","","","","","","","","","","","","","","",""
"","","","","","canvas-keyboard-response","105","287897","0.0-12.0-3.18","2d_cat_multi_stim_exp1","2022-4-27","10:18:1","25","75","3","9","10","40","30","120","65","21","[""Black or African-American""]","No","Female","2026255","null","null","learn_feedback","","","learn_feedback","10","60","out","","","","","","","","","","","","","","","","","","","","","","",""
"","","","","","canvas-keyboard-response","106","287960","0.0-12.0-4.18","2d_cat_multi_stim_exp1","2022-4-27","10:18:1","25","75","3","9","10","40","30","120","65","21","[""Black or African-American""]","No","Female","2026255","null","null","","","","clear_screen","","","","","","","","","","","","","","","","","","","","","","","","","",""
"","","","","","canvas-keyboard-response","107","288470","0.0-12.0-0.19","2d_cat_multi_stim_exp1","2022-4-27","10:18:1","25","75","3","9","10","40","30","120","65","21","[""Black or African-American""]","No","Female","2026255","null","null","","","","fixation","","","","","","","","","","","","","","","","","","","","","","","","","",""
"","","","","","canvas-keyboard-response","108","288982","0.0-12.0-1.19","2d_cat_multi_stim_exp1","2022-4-27","10:18:1","25","75","3","9","10","40","30","120","65","21","[""Black or African-American""]","No","Female","2026255","null","null","","","","clear_screen","","","","","","","","","","","","","","","","","","","","","","","","","",""
"","","","","","canvas-keyboard-response","109","290002","0.0-12.0-2.19","2d_cat_multi_stim_exp1","2022-4-27","10:18:1","25","75","3","9","10","40","30","120","65","21","[""Black or African-American""]","No","Female","2026255","1010","u","learn","","","learn_trial","29.2426","87.7279","in","1","1","","","","","","","","","","","","","","","","","","","","",""
"","","","","","canvas-keyboard-response","110","290515","0.0-12.0-3.19","2d_cat_multi_stim_exp1","2022-4-27","10:18:1","25","75","3","9","10","40","30","120","65","21","[""Black or African-American""]","No","Female","2026255","null","null","learn_feedback","","","learn_feedback","29.2426","87.7279","in","","","","","","","","","","","","","","","","","","","","","","",""
"","","","","","canvas-keyboard-response","111","290576","0.0-12.0-4.19","2d_cat_multi_stim_exp1","2022-4-27","10:18:1","25","75","3","9","10","40","30","120","65","21","[""Black or African-American""]","No","Female","2026255","null","null","","","","clear_screen","","","","","","","","","","","","","","","","","","","","","","","","","",""
"","","","","","canvas-keyboard-response","112","291086","0.0-12.0-0.20","2d_cat_multi_stim_exp1","2022-4-27","10:18:1","25","75","3","9","10","40","30","120","65","21","[""Black or African-American""]","No","Female","2026255","null","null","","","","fixation","","","","","","","","","","","","","","","","","","","","","","","","","",""
"","","","","","canvas-keyboard-response","113","291597","0.0-12.0-1.20","2d_cat_multi_stim_exp1","2022-4-27","10:18:1","25","75","3","9","10","40","30","120","65","21","[""Black or African-American""]","No","Female","2026255","null","null","","","","clear_screen","","","","","","","","","","","","","","","","","","","","","","","","","",""
"","","","","","canvas-keyboard-response","114","292338","0.0-12.0-2.20","2d_cat_multi_stim_exp1","2022-4-27","10:18:1","25","75","3","9","10","40","30","120","65","21","[""Black or African-American""]","No","Female","2026255","731","i","learn","","","learn_trial","25","75","in","0","0","","","","","","","","","","","","","","","","","","","","",""
"","","","","","canvas-keyboard-response","115","293351","0.0-12.0-3.20","2d_cat_multi_stim_exp1","2022-4-27","10:18:1","25","75","3","9","10","40","30","120","65","21","[""Black or African-American""]","No","Female","2026255","null","null","learn_feedback","","","learn_feedback","25","75","in","","","","","","","","","","","","","","","","","","","","","","",""
"","","","","","canvas-keyboard-response","116","293412","0.0-12.0-4.20","2d_cat_multi_stim_exp1","2022-4-27","10:18:1","25","75","3","9","10","40","30","120","65","21","[""Black or African-American""]","No","Female","2026255","null","null","","","","clear_screen","","","","","","","","","","","","","","","","","","","","","","","","","",""
"","","","","","canvas-keyboard-response","117","293923","0.0-12.0-0.21","2d_cat_multi_stim_exp1","2022-4-27","10:18:1","25","75","3","9","10","40","30","120","65","21","[""Black or African-American""]","No","Female","2026255","null","null","","","","fixation","","","","","","","","","","","","","","","","","","","","","","","","","",""
"","","","","","canvas-keyboard-response","118","294439","0.0-12.0-1.21","2d_cat_multi_stim_exp1","2022-4-27","10:18:1","25","75","3","9","10","40","30","120","65","21","[""Black or African-American""]","No","Female","2026255","null","null","","","","clear_screen","","","","","","","","","","","","","","","","","","","","","","","","","",""
"","","","","","canvas-keyboard-response","119","295307","0.0-12.0-2.21","2d_cat_multi_stim_exp1","2022-4-27","10:18:1","25","75","3","9","10","40","30","120","65","21","[""Black or African-American""]","No","Female","2026255","855","u","learn","","","learn_trial","23.3473","67.4888","in","1","1","","","","","","","","","","","","","","","","","","","","",""
"","","","","","canvas-keyboard-response","120","295819","0.0-12.0-3.21","2d_cat_multi_stim_exp1","2022-4-27","10:18:1","25","75","3","9","10","40","30","120","65","21","[""Black or African-American""]","No","Female","2026255","null","null","learn_feedback","","","learn_feedback","23.3473","67.4888","in","","","","","","","","","","","","","","","","","","","","","","",""
"","","","","","canvas-keyboard-response","121","295880","0.0-12.0-4.21","2d_cat_multi_stim_exp1","2022-4-27","10:18:1","25","75","3","9","10","40","30","120","65","21","[""Black or African-American""]","No","Female","2026255","null","null","","","","clear_screen","","","","","","","","","","","","","","","","","","","","","","","","","",""
"","","","","","canvas-keyboard-response","122","296393","0.0-12.0-0.22","2d_cat_multi_stim_exp1","2022-4-27","10:18:1","25","75","3","9","10","40","30","120","65","21","[""Black or African-American""]","No","Female","2026255","null","null","","","","fixation","","","","","","","","","","","","","","","","","","","","","","","","","",""
"","","","","","canvas-keyboard-response","123","296905","0.0-12.0-1.22","2d_cat_multi_stim_exp1","2022-4-27","10:18:1","25","75","3","9","10","40","30","120","65","21","[""Black or African-American""]","No","Female","2026255","null","null","","","","clear_screen","","","","","","","","","","","","","","","","","","","","","","","","","",""
"","","","","","canvas-keyboard-response","124","297898","0.0-12.0-2.22","2d_cat_multi_stim_exp1","2022-4-27","10:18:1","25","75","3","9","10","40","30","120","65","21","[""Black or African-American""]","No","Female","2026255","980","u","learn","","","learn_trial","26.6667","90","out","1","0","","","","","","","","","","","","","","","","","","","","",""
"","","","","","canvas-keyboard-response","125","298908","0.0-12.0-3.22","2d_cat_multi_stim_exp1","2022-4-27","10:18:1","25","75","3","9","10","40","30","120","65","21","[""Black or African-American""]","No","Female","2026255","null","null","learn_feedback","","","learn_feedback","26.6667","90","out","","","","","","","","","","","","","","","","","","","","","","",""
"","","","","","canvas-keyboard-response","126","298972","0.0-12.0-4.22","2d_cat_multi_stim_exp1","2022-4-27","10:18:1","25","75","3","9","10","40","30","120","65","21","[""Black or African-American""]","No","Female","2026255","null","null","","","","clear_screen","","","","","","","","","","","","","","","","","","","","","","","","","",""
"","","","","","canvas-keyboard-response","127","299482","0.0-12.0-0.23","2d_cat_multi_stim_exp1","2022-4-27","10:18:1","25","75","3","9","10","40","30","120","65","21","[""Black or African-American""]","No","Female","2026255","null","null","","","","fixation","","","","","","","","","","","","","","","","","","","","","","","","","",""
"","","","","","canvas-keyboard-response","128","299992","0.0-12.0-1.23","2d_cat_multi_stim_exp1","2022-4-27","10:18:1","25","75","3","9","10","40","30","120","65","21","[""Black or African-American""]","No","Female","2026255","null","null","","","","clear_screen","","","","","","","","","","","","","","","","","","","","","","","","","",""
"","","","","","canvas-keyboard-response","129","300779","0.0-12.0-2.23","2d_cat_multi_stim_exp1","2022-4-27","10:18:1","25","75","3","9","10","40","30","120","65","21","[""Black or African-American""]","No","Female","2026255","777","i","learn","","","learn_trial","25","57","in","0","0","","","","","","","","","","","","","","","","","","","","",""
"","","","","","canvas-keyboard-response","130","301788","0.0-12.0-3.23","2d_cat_multi_stim_exp1","2022-4-27","10:18:1","25","75","3","9","10","40","30","120","65","21","[""Black or African-American""]","No","Female","2026255","null","null","learn_feedback","","","learn_feedback","25","57","in","","","","","","","","","","","","","","","","","","","","","","",""
"","","","","","canvas-keyboard-response","131","301849","0.0-12.0-4.23","2d_cat_multi_stim_exp1","2022-4-27","10:18:1","25","75","3","9","10","40","30","120","65","21","[""Black or African-American""]","No","Female","2026255","null","null","","","","clear_screen","","","","","","","","","","","","","","","","","","","","","","","","","",""
"","","","","","canvas-keyboard-response","132","302358","0.0-12.0-0.24","2d_cat_multi_stim_exp1","2022-4-27","10:18:1","25","75","3","9","10","40","30","120","65","21","[""Black or African-American""]","No","Female","2026255","null","null","","","","fixation","","","","","","","","","","","","","","","","","","","","","","","","","",""
"","","","","","canvas-keyboard-response","133","302868","0.0-12.0-1.24","2d_cat_multi_stim_exp1","2022-4-27","10:18:1","25","75","3","9","10","40","30","120","65","21","[""Black or African-American""]","No","Female","2026255","null","null","","","","clear_screen","","","","","","","","","","","","","","","","","","","","","","","","","",""
"","","","","","canvas-keyboard-response","134","303818","0.0-12.0-2.24","2d_cat_multi_stim_exp1","2022-4-27","10:18:1","25","75","3","9","10","40","30","120","65","21","[""Black or African-American""]","No","Female","2026255","938","i","learn","","","learn_trial","10","80","out","0","1","","","","","","","","","","","","","","","","","","","","",""
"","","","","","canvas-keyboard-response","135","304328","0.0-12.0-3.24","2d_cat_multi_stim_exp1","2022-4-27","10:18:1","25","75","3","9","10","40","30","120","65","21","[""Black or African-American""]","No","Female","2026255","null","null","learn_feedback","","","learn_feedback","10","80","out","","","","","","","","","","","","","","","","","","","","","","",""
"","","","","","canvas-keyboard-response","136","304391","0.0-12.0-4.24","2d_cat_multi_stim_exp1","2022-4-27","10:18:1","25","75","3","9","10","40","30","120","65","21","[""Black or African-American""]","No","Female","2026255","null","null","","","","clear_screen","","","","","","","","","","","","","","","","","","","","","","","","","",""
"","","","","","canvas-keyboard-response","137","304903","0.0-12.0-0.25","2d_cat_multi_stim_exp1","2022-4-27","10:18:1","25","75","3","9","10","40","30","120","65","21","[""Black or African-American""]","No","Female","2026255","null","null","","","","fixation","","","","","","","","","","","","","","","","","","","","","","","","","",""
"","","","","","canvas-keyboard-response","138","305416","0.0-12.0-1.25","2d_cat_multi_stim_exp1","2022-4-27","10:18:1","25","75","3","9","10","40","30","120","65","21","[""Black or African-American""]","No","Female","2026255","null","null","","","","clear_screen","","","","","","","","","","","","","","","","","","","","","","","","","",""
"","","","","","canvas-keyboard-response","139","305946","0.0-12.0-2.25","2d_cat_multi_stim_exp1","2022-4-27","10:18:1","25","75","3","9","10","40","30","120","65","21","[""Black or African-American""]","No","Female","2026255","521","u","learn","","","learn_trial","25","75","in","1","1","","","","","","","","","","","","","","","","","","","","",""
"","","","","","canvas-keyboard-response","140","306458","0.0-12.0-3.25","2d_cat_multi_stim_exp1","2022-4-27","10:18:1","25","75","3","9","10","40","30","120","65","21","[""Black or African-American""]","No","Female","2026255","null","null","learn_feedback","","","learn_feedback","25","75","in","","","","","","","","","","","","","","","","","","","","","","",""
"","","","","","canvas-keyboard-response","141","306518","0.0-12.0-4.25","2d_cat_multi_stim_exp1","2022-4-27","10:18:1","25","75","3","9","10","40","30","120","65","21","[""Black or African-American""]","No","Female","2026255","null","null","","","","clear_screen","","","","","","","","","","","","","","","","","","","","","","","","","",""
"","","","","","canvas-keyboard-response","142","307027","0.0-12.0-0.26","2d_cat_multi_stim_exp1","2022-4-27","10:18:1","25","75","3","9","10","40","30","120","65","21","[""Black or African-American""]","No","Female","2026255","null","null","","","","fixation","","","","","","","","","","","","","","","","","","","","","","","","","",""
"","","","","","canvas-keyboard-response","143","307537","0.0-12.0-1.26","2d_cat_multi_stim_exp1","2022-4-27","10:18:1","25","75","3","9","10","40","30","120","65","21","[""Black or African-American""]","No","Female","2026255","null","null","","","","clear_screen","","","","","","","","","","","","","","","","","","","","","","","","","",""
"","","","","","canvas-keyboard-response","144","308251","0.0-12.0-2.26","2d_cat_multi_stim_exp1","2022-4-27","10:18:1","25","75","3","9","10","40","30","120","65","21","[""Black or African-American""]","No","Female","2026255","702","u","learn","","","learn_trial","25","75","in","1","1","","","","","","","","","","","","","","","","","","","","",""
"","","","","","canvas-keyboard-response","145","308761","0.0-12.0-3.26","2d_cat_multi_stim_exp1","2022-4-27","10:18:1","25","75","3","9","10","40","30","120","65","21","[""Black or African-American""]","No","Female","2026255","null","null","learn_feedback","","","learn_feedback","25","75","in","","","","","","","","","","","","","","","","","","","","","","",""
"","","","","","canvas-keyboard-response","146","308822","0.0-12.0-4.26","2d_cat_multi_stim_exp1","2022-4-27","10:18:1","25","75","3","9","10","40","30","120","65","21","[""Black or African-American""]","No","Female","2026255","null","null","","","","clear_screen","","","","","","","","","","","","","","","","","","","","","","","","","",""
"","","","","","canvas-keyboard-response","147","309332","0.0-12.0-0.27","2d_cat_multi_stim_exp1","2022-4-27","10:18:1","25","75","3","9","10","40","30","120","65","21","[""Black or African-American""]","No","Female","2026255","null","null","","","","fixation","","","","","","","","","","","","","","","","","","","","","","","","","",""
"","","","","","canvas-keyboard-response","148","309843","0.0-12.0-1.27","2d_cat_multi_stim_exp1","2022-4-27","10:18:1","25","75","3","9","10","40","30","120","65","21","[""Black or African-American""]","No","Female","2026255","null","null","","","","clear_screen","","","","","","","","","","","","","","","","","","","","","","","","","",""
"","","","","","canvas-keyboard-response","149","310858","0.0-12.0-2.27","2d_cat_multi_stim_exp1","2022-4-27","10:18:1","25","75","3","9","10","40","30","120","65","21","[""Black or African-American""]","No","Female","2026255","1005","u","learn","","","learn_trial","30","90","out","1","0","","","","","","","","","","","","","","","","","","","","",""
"","","","","","canvas-keyboard-response","150","311867","0.0-12.0-3.27","2d_cat_multi_stim_exp1","2022-4-27","10:18:1","25","75","3","9","10","40","30","120","65","21","[""Black or African-American""]","No","Female","2026255","null","null","learn_feedback","","","learn_feedback","30","90","out","","","","","","","","","","","","","","","","","","","","","","",""
"","","","","","canvas-keyboard-response","151","311927","0.0-12.0-4.27","2d_cat_multi_stim_exp1","2022-4-27","10:18:1","25","75","3","9","10","40","30","120","65","21","[""Black or African-American""]","No","Female","2026255","null","null","","","","clear_screen","","","","","","","","","","","","","","","","","","","","","","","","","",""
"","","","","","canvas-keyboard-response","152","312436","0.0-12.0-0.28","2d_cat_multi_stim_exp1","2022-4-27","10:18:1","25","75","3","9","10","40","30","120","65","21","[""Black or African-American""]","No","Female","2026255","null","null","","","","fixation","","","","","","","","","","","","","","","","","","","","","","","","","",""
"","","","","","canvas-keyboard-response","153","312947","0.0-12.0-1.28","2d_cat_multi_stim_exp1","2022-4-27","10:18:1","25","75","3","9","10","40","30","120","65","21","[""Black or African-American""]","No","Female","2026255","null","null","","","","clear_screen","","","","","","","","","","","","","","","","","","","","","","","","","",""
"","","","","","canvas-keyboard-response","154","314466","0.0-12.0-2.28","2d_cat_multi_stim_exp1","2022-4-27","10:18:1","25","75","3","9","10","40","30","120","65","21","[""Black or African-American""]","No","Female","2026255","1510","i","learn","","","learn_trial","36.6667","120","out","0","1","","","","","","","","","","","","","","","","","","","","",""
"","","","","","canvas-keyboard-response","155","314979","0.0-12.0-3.28","2d_cat_multi_stim_exp1","2022-4-27","10:18:1","25","75","3","9","10","40","30","120","65","21","[""Black or African-American""]","No","Female","2026255","null","null","learn_feedback","","","learn_feedback","36.6667","120","out","","","","","","","","","","","","","","","","","","","","","","",""
"","","","","","canvas-keyboard-response","156","315040","0.0-12.0-4.28","2d_cat_multi_stim_exp1","2022-4-27","10:18:1","25","75","3","9","10","40","30","120","65","21","[""Black or African-American""]","No","Female","2026255","null","null","","","","clear_screen","","","","","","","","","","","","","","","","","","","","","","","","","",""
"","","","","","canvas-keyboard-response","157","315546","0.0-12.0-0.29","2d_cat_multi_stim_exp1","2022-4-27","10:18:1","25","75","3","9","10","40","30","120","65","21","[""Black or African-American""]","No","Female","2026255","null","null","","","","fixation","","","","","","","","","","","","","","","","","","","","","","","","","",""
"","","","","","canvas-keyboard-response","158","316060","0.0-12.0-1.29","2d_cat_multi_stim_exp1","2022-4-27","10:18:1","25","75","3","9","10","40","30","120","65","21","[""Black or African-American""]","No","Female","2026255","null","null","","","","clear_screen","","","","","","","","","","","","","","","","","","","","","","","","","",""
"","","","","","canvas-keyboard-response","159","317211","0.0-12.0-2.29","2d_cat_multi_stim_exp1","2022-4-27","10:18:1","25","75","3","9","10","40","30","120","65","21","[""Black or African-American""]","No","Female","2026255","1140","u","learn","","","learn_trial","23.3333","80","out","1","0","","","","","","","","","","","","","","","","","","","","",""
"","","","","","canvas-keyboard-response","160","318221","0.0-12.0-3.29","2d_cat_multi_stim_exp1","2022-4-27","10:18:1","25","75","3","9","10","40","30","120","65","21","[""Black or African-American""]","No","Female","2026255","null","null","learn_feedback","","","learn_feedback","23.3333","80","out","","","","","","","","","","","","","","","","","","","","","","",""
"","","","","","canvas-keyboard-response","161","318284","0.0-12.0-4.29","2d_cat_multi_stim_exp1","2022-4-27","10:18:1","25","75","3","9","10","40","30","120","65","21","[""Black or African-American""]","No","Female","2026255","null","null","","","","clear_screen","","","","","","","","","","","","","","","","","","","","","","","","","",""
"","","","","","canvas-keyboard-response","162","318797","0.0-12.0-0.30","2d_cat_multi_stim_exp1","2022-4-27","10:18:1","25","75","3","9","10","40","30","120","65","21","[""Black or African-American""]","No","Female","2026255","null","null","","","","fixation","","","","","","","","","","","","","","","","","","","","","","","","","",""
"","","","","","canvas-keyboard-response","163","319309","0.0-12.0-1.30","2d_cat_multi_stim_exp1","2022-4-27","10:18:1","25","75","3","9","10","40","30","120","65","21","[""Black or African-American""]","No","Female","2026255","null","null","","","","clear_screen","","","","","","","","","","","","","","","","","","","","","","","","","",""
"","","","","","canvas-keyboard-response","164","321251","0.0-12.0-2.30","2d_cat_multi_stim_exp1","2022-4-27","10:18:1","25","75","3","9","10","40","30","120","65","21","[""Black or African-American""]","No","Female","2026255","1932","u","learn","","","learn_trial","33.3333","80","out","1","0","","","","","","","","","","","","","","","","","","","","",""
"","","","","","canvas-keyboard-response","165","322263","0.0-12.0-3.30","2d_cat_multi_stim_exp1","2022-4-27","10:18:1","25","75","3","9","10","40","30","120","65","21","[""Black or African-American""]","No","Female","2026255","null","null","learn_feedback","","","learn_feedback","33.3333","80","out","","","","","","","","","","","","","","","","","","","","","","",""
"","","","","","canvas-keyboard-response","166","322326","0.0-12.0-4.30","2d_cat_multi_stim_exp1","2022-4-27","10:18:1","25","75","3","9","10","40","30","120","65","21","[""Black or African-American""]","No","Female","2026255","null","null","","","","clear_screen","","","","","","","","","","","","","","","","","","","","","","","","","",""
"","","","","","canvas-keyboard-response","167","322835","0.0-12.0-0.31","2d_cat_multi_stim_exp1","2022-4-27","10:18:1","25","75","3","9","10","40","30","120","65","21","[""Black or African-American""]","No","Female","2026255","null","null","","","","fixation","","","","","","","","","","","","","","","","","","","","","","","","","",""
"","","","","","canvas-keyboard-response","168","323348","0.0-12.0-1.31","2d_cat_multi_stim_exp1","2022-4-27","10:18:1","25","75","3","9","10","40","30","120","65","21","[""Black or African-American""]","No","Female","2026255","null","null","","","","clear_screen","","","","","","","","","","","","","","","","","","","","","","","","","",""
"","","","","","canvas-keyboard-response","169","323922","0.0-12.0-2.31","2d_cat_multi_stim_exp1","2022-4-27","10:18:1","25","75","3","9","10","40","30","120","65","21","[""Black or African-American""]","No","Female","2026255","564","i","learn","","","learn_trial","25","75","in","0","0","","","","","","","","","","","","","","","","","","","","",""
"","","","","","canvas-keyboard-response","170","324936","0.0-12.0-3.31","2d_cat_multi_stim_exp1","2022-4-27","10:18:1","25","75","3","9","10","40","30","120","65","21","[""Black or African-American""]","No","Female","2026255","null","null","learn_feedback","","","learn_feedback","25","75","in","","","","","","","","","","","","","","","","","","","","","","",""
"","","","","","canvas-keyboard-response","171","324997","0.0-12.0-4.31","2d_cat_multi_stim_exp1","2022-4-27","10:18:1","25","75","3","9","10","40","30","120","65","21","[""Black or African-American""]","No","Female","2026255","null","null","","","","clear_screen","","","","","","","","","","","","","","","","","","","","","","","","","",""
"","","","","","canvas-keyboard-response","172","325512","0.0-12.0-0.32","2d_cat_multi_stim_exp1","2022-4-27","10:18:1","25","75","3","9","10","40","30","120","65","21","[""Black or African-American""]","No","Female","2026255","null","null","","","","fixation","","","","","","","","","","","","","","","","","","","","","","","","","",""
"","","","","","canvas-keyboard-response","173","326027","0.0-12.0-1.32","2d_cat_multi_stim_exp1","2022-4-27","10:18:1","25","75","3","9","10","40","30","120","65","21","[""Black or African-American""]","No","Female","2026255","null","null","","","","clear_screen","","","","","","","","","","","","","","","","","","","","","","","","","",""
"","","","","","canvas-keyboard-response","174","326819","0.0-12.0-2.32","2d_cat_multi_stim_exp1","2022-4-27","10:18:1","25","75","3","9","10","40","30","120","65","21","[""Black or African-American""]","No","Female","2026255","783","u","learn","","","learn_trial","25","75","in","1","1","","","","","","","","","","","","","","","","","","","","",""
"","","","","","canvas-keyboard-response","175","327329","0.0-12.0-3.32","2d_cat_multi_stim_exp1","2022-4-27","10:18:1","25","75","3","9","10","40","30","120","65","21","[""Black or African-American""]","No","Female","2026255","null","null","learn_feedback","","","learn_feedback","25","75","in","","","","","","","","","","","","","","","","","","","","","","",""
"","","","","","canvas-keyboard-response","176","327392","0.0-12.0-4.32","2d_cat_multi_stim_exp1","2022-4-27","10:18:1","25","75","3","9","10","40","30","120","65","21","[""Black or African-American""]","No","Female","2026255","null","null","","","","clear_screen","","","","","","","","","","","","","","","","","","","","","","","","","",""
"","","","","","canvas-keyboard-response","177","327899","0.0-12.0-0.33","2d_cat_multi_stim_exp1","2022-4-27","10:18:1","25","75","3","9","10","40","30","120","65","21","[""Black or African-American""]","No","Female","2026255","null","null","","","","fixation","","","","","","","","","","","","","","","","","","","","","","","","","",""
"","","","","","canvas-keyboard-response","178","328411","0.0-12.0-1.33","2d_cat_multi_stim_exp1","2022-4-27","10:18:1","25","75","3","9","10","40","30","120","65","21","[""Black or African-American""]","No","Female","2026255","null","null","","","","clear_screen","","","","","","","","","","","","","","","","","","","","","","","","","",""
"","","","","","canvas-keyboard-response","179","329426","0.0-12.0-2.33","2d_cat_multi_stim_exp1","2022-4-27","10:18:1","25","75","3","9","10","40","30","120","65","21","[""Black or African-American""]","No","Female","2026255","1001","i","learn","","","learn_trial","36.6667","70","out","0","1","","","","","","","","","","","","","","","","","","","","",""
"","","","","","canvas-keyboard-response","180","329939","0.0-12.0-3.33","2d_cat_multi_stim_exp1","2022-4-27","10:18:1","25","75","3","9","10","40","30","120","65","21","[""Black or African-American""]","No","Female","2026255","null","null","learn_feedback","","","learn_feedback","36.6667","70","out","","","","","","","","","","","","","","","","","","","","","","",""
"","","","","","canvas-keyboard-response","181","330003","0.0-12.0-4.33","2d_cat_multi_stim_exp1","2022-4-27","10:18:1","25","75","3","9","10","40","30","120","65","21","[""Black or African-American""]","No","Female","2026255","null","null","","","","clear_screen","","","","","","","","","","","","","","","","","","","","","","","","","",""
"","","","","","canvas-keyboard-response","182","330512","0.0-12.0-0.34","2d_cat_multi_stim_exp1","2022-4-27","10:18:1","25","75","3","9","10","40","30","120","65","21","[""Black or African-American""]","No","Female","2026255","null","null","","","","fixation","","","","","","","","","","","","","","","","","","","","","","","","","",""
"","","","","","canvas-keyboard-response","183","331022","0.0-12.0-1.34","2d_cat_multi_stim_exp1","2022-4-27","10:18:1","25","75","3","9","10","40","30","120","65","21","[""Black or African-American""]","No","Female","2026255","null","null","","","","clear_screen","","","","","","","","","","","","","","","","","","","","","","","","","",""
"","","","","","canvas-keyboard-response","184","331818","0.0-12.0-2.34","2d_cat_multi_stim_exp1","2022-4-27","10:18:1","25","75","3","9","10","40","30","120","65","21","[""Black or African-American""]","No","Female","2026255","785","u","learn","","","learn_trial","20","90","out","1","0","","","","","","","","","","","","","","","","","","","","",""
"","","","","","canvas-keyboard-response","185","332831","0.0-12.0-3.34","2d_cat_multi_stim_exp1","2022-4-27","10:18:1","25","75","3","9","10","40","30","120","65","21","[""Black or African-American""]","No","Female","2026255","null","null","learn_feedback","","","learn_feedback","20","90","out","","","","","","","","","","","","","","","","","","","","","","",""
"","","","","","canvas-keyboard-response","186","332896","0.0-12.0-4.34","2d_cat_multi_stim_exp1","2022-4-27","10:18:1","25","75","3","9","10","40","30","120","65","21","[""Black or African-American""]","No","Female","2026255","null","null","","","","clear_screen","","","","","","","","","","","","","","","","","","","","","","","","","",""
"","","","","","canvas-keyboard-response","187","333405","0.0-12.0-0.35","2d_cat_multi_stim_exp1","2022-4-27","10:18:1","25","75","3","9","10","40","30","120","65","21","[""Black or African-American""]","No","Female","2026255","null","null","","","","fixation","","","","","","","","","","","","","","","","","","","","","","","","","",""
"","","","","","canvas-keyboard-response","188","333918","0.0-12.0-1.35","2d_cat_multi_stim_exp1","2022-4-27","10:18:1","25","75","3","9","10","40","30","120","65","21","[""Black or African-American""]","No","Female","2026255","null","null","","","","clear_screen","","","","","","","","","","","","","","","","","","","","","","","","","",""
"","","","","","canvas-keyboard-response","189","334834","0.0-12.0-2.35","2d_cat_multi_stim_exp1","2022-4-27","10:18:1","25","75","3","9","10","40","30","120","65","21","[""Black or African-American""]","No","Female","2026255","907","u","learn","","","learn_trial","20","80","out","1","0","","","","","","","","","","","","","","","","","","","","",""
"","","","","","canvas-keyboard-response","190","335846","0.0-12.0-3.35","2d_cat_multi_stim_exp1","2022-4-27","10:18:1","25","75","3","9","10","40","30","120","65","21","[""Black or African-American""]","No","Female","2026255","null","null","learn_feedback","","","learn_feedback","20","80","out","","","","","","","","","","","","","","","","","","","","","","",""
"","","","","","canvas-keyboard-response","191","335910","0.0-12.0-4.35","2d_cat_multi_stim_exp1","2022-4-27","10:18:1","25","75","3","9","10","40","30","120","65","21","[""Black or African-American""]","No","Female","2026255","null","null","","","","clear_screen","","","","","","","","","","","","","","","","","","","","","","","","","",""
"","","","","","canvas-keyboard-response","192","336420","0.0-12.0-0.36","2d_cat_multi_stim_exp1","2022-4-27","10:18:1","25","75","3","9","10","40","30","120","65","21","[""Black or African-American""]","No","Female","2026255","null","null","","","","fixation","","","","","","","","","","","","","","","","","","","","","","","","","",""
"","","","","","canvas-keyboard-response","193","336931","0.0-12.0-1.36","2d_cat_multi_stim_exp1","2022-4-27","10:18:1","25","75","3","9","10","40","30","120","65","21","[""Black or African-American""]","No","Female","2026255","null","null","","","","clear_screen","","","","","","","","","","","","","","","","","","","","","","","","","",""
"","","","","","canvas-keyboard-response","194","337386","0.0-12.0-2.36","2d_cat_multi_stim_exp1","2022-4-27","10:18:1","25","75","3","9","10","40","30","120","65","21","[""Black or African-American""]","No","Female","2026255","441","i","learn","","","learn_trial","16.6667","40","out","0","1","","","","","","","","","","","","","","","","","","","","",""
"","","","","","canvas-keyboard-response","195","337898","0.0-12.0-3.36","2d_cat_multi_stim_exp1","2022-4-27","10:18:1","25","75","3","9","10","40","30","120","65","21","[""Black or African-American""]","No","Female","2026255","null","null","learn_feedback","","","learn_feedback","16.6667","40","out","","","","","","","","","","","","","","","","","","","","","","",""
"","","","","","canvas-keyboard-response","196","337957","0.0-12.0-4.36","2d_cat_multi_stim_exp1","2022-4-27","10:18:1","25","75","3","9","10","40","30","120","65","21","[""Black or African-American""]","No","Female","2026255","null","null","","","","clear_screen","","","","","","","","","","","","","","","","","","","","","","","","","",""
"","","","","","canvas-keyboard-response","197","338468","0.0-12.0-0.37","2d_cat_multi_stim_exp1","2022-4-27","10:18:1","25","75","3","9","10","40","30","120","65","21","[""Black or African-American""]","No","Female","2026255","null","null","","","","fixation","","","","","","","","","","","","","","","","","","","","","","","","","",""
"","","","","","canvas-keyboard-response","198","338984","0.0-12.0-1.37","2d_cat_multi_stim_exp1","2022-4-27","10:18:1","25","75","3","9","10","40","30","120","65","21","[""Black or African-American""]","No","Female","2026255","null","null","","","","clear_screen","","","","","","","","","","","","","","","","","","","","","","","","","",""
"","","","","","canvas-keyboard-response","199","339642","0.0-12.0-2.37","2d_cat_multi_stim_exp1","2022-4-27","10:18:1","25","75","3","9","10","40","30","120","65","21","[""Black or African-American""]","No","Female","2026255","647","i","learn","","","learn_trial","23.3333","50","out","0","1","","","","","","","","","","","","","","","","","","","","",""
"","","","","","canvas-keyboard-response","200","340152","0.0-12.0-3.37","2d_cat_multi_stim_exp1","2022-4-27","10:18:1","25","75","3","9","10","40","30","120","65","21","[""Black or African-American""]","No","Female","2026255","null","null","learn_feedback","","","learn_feedback","23.3333","50","out","","","","","","","","","","","","","","","","","","","","","","",""
"","","","","","canvas-keyboard-response","201","340212","0.0-12.0-4.37","2d_cat_multi_stim_exp1","2022-4-27","10:18:1","25","75","3","9","10","40","30","120","65","21","[""Black or African-American""]","No","Female","2026255","null","null","","","","clear_screen","","","","","","","","","","","","","","","","","","","","","","","","","",""
"","","","","","canvas-keyboard-response","202","340722","0.0-12.0-0.38","2d_cat_multi_stim_exp1","2022-4-27","10:18:1","25","75","3","9","10","40","30","120","65","21","[""Black or African-American""]","No","Female","2026255","null","null","","","","fixation","","","","","","","","","","","","","","","","","","","","","","","","","",""
"","","","","","canvas-keyboard-response","203","341233","0.0-12.0-1.38","2d_cat_multi_stim_exp1","2022-4-27","10:18:1","25","75","3","9","10","40","30","120","65","21","[""Black or African-American""]","No","Female","2026255","null","null","","","","clear_screen","","","","","","","","","","","","","","","","","","","","","","","","","",""
"","","","","","canvas-keyboard-response","204","342499","0.0-12.0-2.38","2d_cat_multi_stim_exp1","2022-4-27","10:18:1","25","75","3","9","10","40","30","120","65","21","[""Black or African-American""]","No","Female","2026255","1252","u","learn","","","learn_trial","25","75","in","1","1","","","","","","","","","","","","","","","","","","","","",""
"","","","","","canvas-keyboard-response","205","343011","0.0-12.0-3.38","2d_cat_multi_stim_exp1","2022-4-27","10:18:1","25","75","3","9","10","40","30","120","65","21","[""Black or African-American""]","No","Female","2026255","null","null","learn_feedback","","","learn_feedback","25","75","in","","","","","","","","","","","","","","","","","","","","","","",""
"","","","","","canvas-keyboard-response","206","343070","0.0-12.0-4.38","2d_cat_multi_stim_exp1","2022-4-27","10:18:1","25","75","3","9","10","40","30","120","65","21","[""Black or African-American""]","No","Female","2026255","null","null","","","","clear_screen","","","","","","","","","","","","","","","","","","","","","","","","","",""
"","","","","","canvas-keyboard-response","207","343582","0.0-12.0-0.39","2d_cat_multi_stim_exp1","2022-4-27","10:18:1","25","75","3","9","10","40","30","120","65","21","[""Black or African-American""]","No","Female","2026255","null","null","","","","fixation","","","","","","","","","","","","","","","","","","","","","","","","","",""
"","","","","","canvas-keyboard-response","208","344094","0.0-12.0-1.39","2d_cat_multi_stim_exp1","2022-4-27","10:18:1","25","75","3","9","10","40","30","120","65","21","[""Black or African-American""]","No","Female","2026255","null","null","","","","clear_screen","","","","","","","","","","","","","","","","","","","","","","","","","",""
"","","","","","canvas-keyboard-response","209","345082","0.0-12.0-2.39","2d_cat_multi_stim_exp1","2022-4-27","10:18:1","25","75","3","9","10","40","30","120","65","21","[""Black or African-American""]","No","Female","2026255","982","i","learn","","","learn_trial","33.3333","90","out","0","1","","","","","","","","","","","","","","","","","","","","",""
"","","","","","canvas-keyboard-response","210","345593","0.0-12.0-3.39","2d_cat_multi_stim_exp1","2022-4-27","10:18:1","25","75","3","9","10","40","30","120","65","21","[""Black or African-American""]","No","Female","2026255","null","null","learn_feedback","","","learn_feedback","33.3333","90","out","","","","","","","","","","","","","","","","","","","","","","",""
"","","","","","canvas-keyboard-response","211","345659","0.0-12.0-4.39","2d_cat_multi_stim_exp1","2022-4-27","10:18:1","25","75","3","9","10","40","30","120","65","21","[""Black or African-American""]","No","Female","2026255","null","null","","","","clear_screen","","","","","","","","","","","","","","","","","","","","","","","","","",""
"","","","","","canvas-keyboard-response","212","346167","0.0-12.0-0.40","2d_cat_multi_stim_exp1","2022-4-27","10:18:1","25","75","3","9","10","40","30","120","65","21","[""Black or African-American""]","No","Female","2026255","null","null","","","","fixation","","","","","","","","","","","","","","","","","","","","","","","","","",""
"","","","","","canvas-keyboard-response","213","346678","0.0-12.0-1.40","2d_cat_multi_stim_exp1","2022-4-27","10:18:1","25","75","3","9","10","40","30","120","65","21","[""Black or African-American""]","No","Female","2026255","null","null","","","","clear_screen","","","","","","","","","","","","","","","","","","","","","","","","","",""
"","","","","","canvas-keyboard-response","214","348874","0.0-12.0-2.40","2d_cat_multi_stim_exp1","2022-4-27","10:18:1","25","75","3","9","10","40","30","120","65","21","[""Black or African-American""]","No","Female","2026255","2186","u","learn","","","learn_trial","25","75","in","1","1","","","","","","","","","","","","","","","","","","","","",""
"","","","","","canvas-keyboard-response","215","349384","0.0-12.0-3.40","2d_cat_multi_stim_exp1","2022-4-27","10:18:1","25","75","3","9","10","40","30","120","65","21","[""Black or African-American""]","No","Female","2026255","null","null","learn_feedback","","","learn_feedback","25","75","in","","","","","","","","","","","","","","","","","","","","","","",""
"","","","","","canvas-keyboard-response","216","349445","0.0-12.0-4.40","2d_cat_multi_stim_exp1","2022-4-27","10:18:1","25","75","3","9","10","40","30","120","65","21","[""Black or African-American""]","No","Female","2026255","null","null","","","","clear_screen","","","","","","","","","","","","","","","","","","","","","","","","","",""
"","","","","","canvas-keyboard-response","217","349954","0.0-12.0-0.41","2d_cat_multi_stim_exp1","2022-4-27","10:18:1","25","75","3","9","10","40","30","120","65","21","[""Black or African-American""]","No","Female","2026255","null","null","","","","fixation","","","","","","","","","","","","","","","","","","","","","","","","","",""
"","","","","","canvas-keyboard-response","218","350469","0.0-12.0-1.41","2d_cat_multi_stim_exp1","2022-4-27","10:18:1","25","75","3","9","10","40","30","120","65","21","[""Black or African-American""]","No","Female","2026255","null","null","","","","clear_screen","","","","","","","","","","","","","","","","","","","","","","","","","",""
"","","","","","canvas-keyboard-response","219","351738","0.0-12.0-2.41","2d_cat_multi_stim_exp1","2022-4-27","10:18:1","25","75","3","9","10","40","30","120","65","21","[""Black or African-American""]","No","Female","2026255","1259","u","learn","","","learn_trial","25","75","in","1","1","","","","","","","","","","","","","","","","","","","","",""
"","","","","","canvas-keyboard-response","220","352251","0.0-12.0-3.41","2d_cat_multi_stim_exp1","2022-4-27","10:18:1","25","75","3","9","10","40","30","120","65","21","[""Black or African-American""]","No","Female","2026255","null","null","learn_feedback","","","learn_feedback","25","75","in","","","","","","","","","","","","","","","","","","","","","","",""
"","","","","","canvas-keyboard-response","221","352316","0.0-12.0-4.41","2d_cat_multi_stim_exp1","2022-4-27","10:18:1","25","75","3","9","10","40","30","120","65","21","[""Black or African-American""]","No","Female","2026255","null","null","","","","clear_screen","","","","","","","","","","","","","","","","","","","","","","","","","",""
"","","","","","canvas-keyboard-response","222","352825","0.0-12.0-0.42","2d_cat_multi_stim_exp1","2022-4-27","10:18:1","25","75","3","9","10","40","30","120","65","21","[""Black or African-American""]","No","Female","2026255","null","null","","","","fixation","","","","","","","","","","","","","","","","","","","","","","","","","",""
"","","","","","canvas-keyboard-response","223","353340","0.0-12.0-1.42","2d_cat_multi_stim_exp1","2022-4-27","10:18:1","25","75","3","9","10","40","30","120","65","21","[""Black or African-American""]","No","Female","2026255","null","null","","","","clear_screen","","","","","","","","","","","","","","","","","","","","","","","","","",""
"","","","","","canvas-keyboard-response","224","354202","0.0-12.0-2.42","2d_cat_multi_stim_exp1","2022-4-27","10:18:1","25","75","3","9","10","40","30","120","65","21","[""Black or African-American""]","No","Female","2026255","853","u","learn","","","learn_trial","22.9268","68.4948","in","1","1","","","","","","","","","","","","","","","","","","","","",""
"","","","","","canvas-keyboard-response","225","354715","0.0-12.0-3.42","2d_cat_multi_stim_exp1","2022-4-27","10:18:1","25","75","3","9","10","40","30","120","65","21","[""Black or African-American""]","No","Female","2026255","null","null","learn_feedback","","","learn_feedback","22.9268","68.4948","in","","","","","","","","","","","","","","","","","","","","","","",""
"","","","","","canvas-keyboard-response","226","354774","0.0-12.0-4.42","2d_cat_multi_stim_exp1","2022-4-27","10:18:1","25","75","3","9","10","40","30","120","65","21","[""Black or African-American""]","No","Female","2026255","null","null","","","","clear_screen","","","","","","","","","","","","","","","","","","","","","","","","","",""
"","","","","","canvas-keyboard-response","227","355285","0.0-12.0-0.43","2d_cat_multi_stim_exp1","2022-4-27","10:18:1","25","75","3","9","10","40","30","120","65","21","[""Black or African-American""]","No","Female","2026255","null","null","","","","fixation","","","","","","","","","","","","","","","","","","","","","","","","","",""
"","","","","","canvas-keyboard-response","228","355797","0.0-12.0-1.43","2d_cat_multi_stim_exp1","2022-4-27","10:18:1","25","75","3","9","10","40","30","120","65","21","[""Black or African-American""]","No","Female","2026255","null","null","","","","clear_screen","","","","","","","","","","","","","","","","","","","","","","","","","",""
"","","","","","canvas-keyboard-response","229","356747","0.0-12.0-2.43","2d_cat_multi_stim_exp1","2022-4-27","10:18:1","25","75","3","9","10","40","30","120","65","21","[""Black or African-American""]","No","Female","2026255","941","u","learn","","","learn_trial","23.3333","60","out","1","0","","","","","","","","","","","","","","","","","","","","",""
"","","","","","canvas-keyboard-response","230","357756","0.0-12.0-3.43","2d_cat_multi_stim_exp1","2022-4-27","10:18:1","25","75","3","9","10","40","30","120","65","21","[""Black or African-American""]","No","Female","2026255","null","null","learn_feedback","","","learn_feedback","23.3333","60","out","","","","","","","","","","","","","","","","","","","","","","",""
"","","","","","canvas-keyboard-response","231","357817","0.0-12.0-4.43","2d_cat_multi_stim_exp1","2022-4-27","10:18:1","25","75","3","9","10","40","30","120","65","21","[""Black or African-American""]","No","Female","2026255","null","null","","","","clear_screen","","","","","","","","","","","","","","","","","","","","","","","","","",""
"","","","","","canvas-keyboard-response","232","358326","0.0-12.0-0.44","2d_cat_multi_stim_exp1","2022-4-27","10:18:1","25","75","3","9","10","40","30","120","65","21","[""Black or African-American""]","No","Female","2026255","null","null","","","","fixation","","","","","","","","","","","","","","","","","","","","","","","","","",""
"","","","","","canvas-keyboard-response","233","358839","0.0-12.0-1.44","2d_cat_multi_stim_exp1","2022-4-27","10:18:1","25","75","3","9","10","40","30","120","65","21","[""Black or African-American""]","No","Female","2026255","null","null","","","","clear_screen","","","","","","","","","","","","","","","","","","","","","","","","","",""
"","","","","","canvas-keyboard-response","234","359643","0.0-12.0-2.44","2d_cat_multi_stim_exp1","2022-4-27","10:18:1","25","75","3","9","10","40","30","120","65","21","[""Black or African-American""]","No","Female","2026255","792","i","learn","","","learn_trial","13.3333","70","out","0","1","","","","","","","","","","","","","","","","","","","","",""
"","","","","","canvas-keyboard-response","235","360155","0.0-12.0-3.44","2d_cat_multi_stim_exp1","2022-4-27","10:18:1","25","75","3","9","10","40","30","120","65","21","[""Black or African-American""]","No","Female","2026255","null","null","learn_feedback","","","learn_feedback","13.3333","70","out","","","","","","","","","","","","","","","","","","","","","","",""
"","","","","","canvas-keyboard-response","236","360216","0.0-12.0-4.44","2d_cat_multi_stim_exp1","2022-4-27","10:18:1","25","75","3","9","10","40","30","120","65","21","[""Black or African-American""]","No","Female","2026255","null","null","","","","clear_screen","","","","","","","","","","","","","","","","","","","","","","","","","",""
"","","","","","canvas-keyboard-response","237","360726","0.0-12.0-0.45","2d_cat_multi_stim_exp1","2022-4-27","10:18:1","25","75","3","9","10","40","30","120","65","21","[""Black or African-American""]","No","Female","2026255","null","null","","","","fixation","","","","","","","","","","","","","","","","","","","","","","","","","",""
"","","","","","canvas-keyboard-response","238","361241","0.0-12.0-1.45","2d_cat_multi_stim_exp1","2022-4-27","10:18:1","25","75","3","9","10","40","30","120","65","21","[""Black or African-American""]","No","Female","2026255","null","null","","","","clear_screen","","","","","","","","","","","","","","","","","","","","","","","","","",""
"","","","","","canvas-keyboard-response","239","362235","0.0-12.0-2.45","2d_cat_multi_stim_exp1","2022-4-27","10:18:1","25","75","3","9","10","40","30","120","65","21","[""Black or African-American""]","No","Female","2026255","982","u","learn","","","learn_trial","25","75","in","1","1","","","","","","","","","","","","","","","","","","","","",""
"","","","","","canvas-keyboard-response","240","362745","0.0-12.0-3.45","2d_cat_multi_stim_exp1","2022-4-27","10:18:1","25","75","3","9","10","40","30","120","65","21","[""Black or African-American""]","No","Female","2026255","null","null","learn_feedback","","","learn_feedback","25","75","in","","","","","","","","","","","","","","","","","","","","","","",""
"","","","","","canvas-keyboard-response","241","362805","0.0-12.0-4.45","2d_cat_multi_stim_exp1","2022-4-27","10:18:1","25","75","3","9","10","40","30","120","65","21","[""Black or African-American""]","No","Female","2026255","null","null","","","","clear_screen","","","","","","","","","","","","","","","","","","","","","","","","","",""
"","","","","","canvas-keyboard-response","242","363315","0.0-12.0-0.46","2d_cat_multi_stim_exp1","2022-4-27","10:18:1","25","75","3","9","10","40","30","120","65","21","[""Black or African-American""]","No","Female","2026255","null","null","","","","fixation","","","","","","","","","","","","","","","","","","","","","","","","","",""
"","","","","","canvas-keyboard-response","243","363825","0.0-12.0-1.46","2d_cat_multi_stim_exp1","2022-4-27","10:18:1","25","75","3","9","10","40","30","120","65","21","[""Black or African-American""]","No","Female","2026255","null","null","","","","clear_screen","","","","","","","","","","","","","","","","","","","","","","","","","",""
"","","","","","canvas-keyboard-response","244","364715","0.0-12.0-2.46","2d_cat_multi_stim_exp1","2022-4-27","10:18:1","25","75","3","9","10","40","30","120","65","21","[""Black or African-American""]","No","Female","2026255","876","i","learn","","","learn_trial","23.3333","110","out","0","1","","","","","","","","","","","","","","","","","","","","",""
"","","","","","canvas-keyboard-response","245","365227","0.0-12.0-3.46","2d_cat_multi_stim_exp1","2022-4-27","10:18:1","25","75","3","9","10","40","30","120","65","21","[""Black or African-American""]","No","Female","2026255","null","null","learn_feedback","","","learn_feedback","23.3333","110","out","","","","","","","","","","","","","","","","","","","","","","",""
"","","","","","canvas-keyboard-response","246","365287","0.0-12.0-4.46","2d_cat_multi_stim_exp1","2022-4-27","10:18:1","25","75","3","9","10","40","30","120","65","21","[""Black or African-American""]","No","Female","2026255","null","null","","","","clear_screen","","","","","","","","","","","","","","","","","","","","","","","","","",""
"","","","","","canvas-keyboard-response","247","365800","0.0-12.0-0.47","2d_cat_multi_stim_exp1","2022-4-27","10:18:1","25","75","3","9","10","40","30","120","65","21","[""Black or African-American""]","No","Female","2026255","null","null","","","","fixation","","","","","","","","","","","","","","","","","","","","","","","","","",""
"","","","","","canvas-keyboard-response","248","366309","0.0-12.0-1.47","2d_cat_multi_stim_exp1","2022-4-27","10:18:1","25","75","3","9","10","40","30","120","65","21","[""Black or African-American""]","No","Female","2026255","null","null","","","","clear_screen","","","","","","","","","","","","","","","","","","","","","","","","","",""
"","","","","","canvas-keyboard-response","249","367123","0.0-12.0-2.47","2d_cat_multi_stim_exp1","2022-4-27","10:18:1","25","75","3","9","10","40","30","120","65","21","[""Black or African-American""]","No","Female","2026255","801","i","learn","","","learn_trial","10","120","out","0","1","","","","","","","","","","","","","","","","","","","","",""
"","","","","","canvas-keyboard-response","250","367635","0.0-12.0-3.47","2d_cat_multi_stim_exp1","2022-4-27","10:18:1","25","75","3","9","10","40","30","120","65","21","[""Black or African-American""]","No","Female","2026255","null","null","learn_feedback","","","learn_feedback","10","120","out","","","","","","","","","","","","","","","","","","","","","","",""
"","","","","","canvas-keyboard-response","251","367697","0.0-12.0-4.47","2d_cat_multi_stim_exp1","2022-4-27","10:18:1","25","75","3","9","10","40","30","120","65","21","[""Black or African-American""]","No","Female","2026255","null","null","","","","clear_screen","","","","","","","","","","","","","","","","","","","","","","","","","",""
"","","","","","canvas-keyboard-response","252","368207","0.0-12.0-0.48","2d_cat_multi_stim_exp1","2022-4-27","10:18:1","25","75","3","9","10","40","30","120","65","21","[""Black or African-American""]","No","Female","2026255","null","null","","","","fixation","","","","","","","","","","","","","","","","","","","","","","","","","",""
"","","","","","canvas-keyboard-response","253","368718","0.0-12.0-1.48","2d_cat_multi_stim_exp1","2022-4-27","10:18:1","25","75","3","9","10","40","30","120","65","21","[""Black or African-American""]","No","Female","2026255","null","null","","","","clear_screen","","","","","","","","","","","","","","","","","","","","","","","","","",""
"","","","","","canvas-keyboard-response","254","369370","0.0-12.0-2.48","2d_cat_multi_stim_exp1","2022-4-27","10:18:1","25","75","3","9","10","40","30","120","65","21","[""Black or African-American""]","No","Female","2026255","643","i","learn","","","learn_trial","23.3473","82.5112","in","0","0","","","","","","","","","","","","","","","","","","","","",""
"","","","","","canvas-keyboard-response","255","370381","0.0-12.0-3.48","2d_cat_multi_stim_exp1","2022-4-27","10:18:1","25","75","3","9","10","40","30","120","65","21","[""Black or African-American""]","No","Female","2026255","null","null","learn_feedback","","","learn_feedback","23.3473","82.5112","in","","","","","","","","","","","","","","","","","","","","","","",""
"","","","","","canvas-keyboard-response","256","370442","0.0-12.0-4.48","2d_cat_multi_stim_exp1","2022-4-27","10:18:1","25","75","3","9","10","40","30","120","65","21","[""Black or African-American""]","No","Female","2026255","null","null","","","","clear_screen","","","","","","","","","","","","","","","","","","","","","","","","","",""
"","","","","","canvas-keyboard-response","257","370952","0.0-12.0-0.49","2d_cat_multi_stim_exp1","2022-4-27","10:18:1","25","75","3","9","10","40","30","120","65","21","[""Black or African-American""]","No","Female","2026255","null","null","","","","fixation","","","","","","","","","","","","","","","","","","","","","","","","","",""
"","","","","","canvas-keyboard-response","258","371467","0.0-12.0-1.49","2d_cat_multi_stim_exp1","2022-4-27","10:18:1","25","75","3","9","10","40","30","120","65","21","[""Black or African-American""]","No","Female","2026255","null","null","","","","clear_screen","","","","","","","","","","","","","","","","","","","","","","","","","",""
"","","","","","canvas-keyboard-response","259","372554","0.0-12.0-2.49","2d_cat_multi_stim_exp1","2022-4-27","10:18:1","25","75","3","9","10","40","30","120","65","21","[""Black or African-American""]","No","Female","2026255","1077","u","learn","","","learn_trial","27.5753","79.6161","in","1","1","","","","","","","","","","","","","","","","","","","","",""
"","","","","","canvas-keyboard-response","260","373066","0.0-12.0-3.49","2d_cat_multi_stim_exp1","2022-4-27","10:18:1","25","75","3","9","10","40","30","120","65","21","[""Black or African-American""]","No","Female","2026255","null","null","learn_feedback","","","learn_feedback","27.5753","79.6161","in","","","","","","","","","","","","","","","","","","","","","","",""
"","","","","","canvas-keyboard-response","261","373128","0.0-12.0-4.49","2d_cat_multi_stim_exp1","2022-4-27","10:18:1","25","75","3","9","10","40","30","120","65","21","[""Black or African-American""]","No","Female","2026255","null","null","","","","clear_screen","","","","","","","","","","","","","","","","","","","","","","","","","",""
"","","","","","canvas-keyboard-response","262","373637","0.0-12.0-0.50","2d_cat_multi_stim_exp1","2022-4-27","10:18:1","25","75","3","9","10","40","30","120","65","21","[""Black or African-American""]","No","Female","2026255","null","null","","","","fixation","","","","","","","","","","","","","","","","","","","","","","","","","",""
"","","","","","canvas-keyboard-response","263","374151","0.0-12.0-1.50","2d_cat_multi_stim_exp1","2022-4-27","10:18:1","25","75","3","9","10","40","30","120","65","21","[""Black or African-American""]","No","Female","2026255","null","null","","","","clear_screen","","","","","","","","","","","","","","","","","","","","","","","","","",""
"","","","","","canvas-keyboard-response","264","375666","0.0-12.0-2.50","2d_cat_multi_stim_exp1","2022-4-27","10:18:1","25","75","3","9","10","40","30","120","65","21","[""Black or African-American""]","No","Female","2026255","1505","i","learn","","","learn_trial","25","75","in","0","0","","","","","","","","","","","","","","","","","","","","",""
"","","","","","canvas-keyboard-response","265","376675","0.0-12.0-3.50","2d_cat_multi_stim_exp1","2022-4-27","10:18:1","25","75","3","9","10","40","30","120","65","21","[""Black or African-American""]","No","Female","2026255","null","null","learn_feedback","","","learn_feedback","25","75","in","","","","","","","","","","","","","","","","","","","","","","",""
"","","","","","canvas-keyboard-response","266","376735","0.0-12.0-4.50","2d_cat_multi_stim_exp1","2022-4-27","10:18:1","25","75","3","9","10","40","30","120","65","21","[""Black or African-American""]","No","Female","2026255","null","null","","","","clear_screen","","","","","","","","","","","","","","","","","","","","","","","","","",""
"","","","","","canvas-keyboard-response","267","377248","0.0-12.0-0.51","2d_cat_multi_stim_exp1","2022-4-27","10:18:1","25","75","3","9","10","40","30","120","65","21","[""Black or African-American""]","No","Female","2026255","null","null","","","","fixation","","","","","","","","","","","","","","","","","","","","","","","","","",""
"","","","","","canvas-keyboard-response","268","377763","0.0-12.0-1.51","2d_cat_multi_stim_exp1","2022-4-27","10:18:1","25","75","3","9","10","40","30","120","65","21","[""Black or African-American""]","No","Female","2026255","null","null","","","","clear_screen","","","","","","","","","","","","","","","","","","","","","","","","","",""
"","","","","","canvas-keyboard-response","269","378498","0.0-12.0-2.51","2d_cat_multi_stim_exp1","2022-4-27","10:18:1","25","75","3","9","10","40","30","120","65","21","[""Black or African-American""]","No","Female","2026255","724","i","learn","","","learn_trial","30","40","out","0","1","","","","","","","","","","","","","","","","","","","","",""
"","","","","","canvas-keyboard-response","270","379011","0.0-12.0-3.51","2d_cat_multi_stim_exp1","2022-4-27","10:18:1","25","75","3","9","10","40","30","120","65","21","[""Black or African-American""]","No","Female","2026255","null","null","learn_feedback","","","learn_feedback","30","40","out","","","","","","","","","","","","","","","","","","","","","","",""
"","","","","","canvas-keyboard-response","271","379075","0.0-12.0-4.51","2d_cat_multi_stim_exp1","2022-4-27","10:18:1","25","75","3","9","10","40","30","120","65","21","[""Black or African-American""]","No","Female","2026255","null","null","","","","clear_screen","","","","","","","","","","","","","","","","","","","","","","","","","",""
"","","","","","canvas-keyboard-response","272","379585","0.0-12.0-0.52","2d_cat_multi_stim_exp1","2022-4-27","10:18:1","25","75","3","9","10","40","30","120","65","21","[""Black or African-American""]","No","Female","2026255","null","null","","","","fixation","","","","","","","","","","","","","","","","","","","","","","","","","",""
"","","","","","canvas-keyboard-response","273","380100","0.0-12.0-1.52","2d_cat_multi_stim_exp1","2022-4-27","10:18:1","25","75","3","9","10","40","30","120","65","21","[""Black or African-American""]","No","Female","2026255","null","null","","","","clear_screen","","","","","","","","","","","","","","","","","","","","","","","","","",""
"","","","","","canvas-keyboard-response","274","380930","0.0-12.0-2.52","2d_cat_multi_stim_exp1","2022-4-27","10:18:1","25","75","3","9","10","40","30","120","65","21","[""Black or African-American""]","No","Female","2026255","820","i","learn","","","learn_trial","16.6667","30","out","0","1","","","","","","","","","","","","","","","","","","","","",""
"","","","","","canvas-keyboard-response","275","381442","0.0-12.0-3.52","2d_cat_multi_stim_exp1","2022-4-27","10:18:1","25","75","3","9","10","40","30","120","65","21","[""Black or African-American""]","No","Female","2026255","null","null","learn_feedback","","","learn_feedback","16.6667","30","out","","","","","","","","","","","","","","","","","","","","","","",""
"","","","","","canvas-keyboard-response","276","381503","0.0-12.0-4.52","2d_cat_multi_stim_exp1","2022-4-27","10:18:1","25","75","3","9","10","40","30","120","65","21","[""Black or African-American""]","No","Female","2026255","null","null","","","","clear_screen","","","","","","","","","","","","","","","","","","","","","","","","","",""
"","","","","","canvas-keyboard-response","277","382012","0.0-12.0-0.53","2d_cat_multi_stim_exp1","2022-4-27","10:18:1","25","75","3","9","10","40","30","120","65","21","[""Black or African-American""]","No","Female","2026255","null","null","","","","fixation","","","","","","","","","","","","","","","","","","","","","","","","","",""
"","","","","","canvas-keyboard-response","278","382527","0.0-12.0-1.53","2d_cat_multi_stim_exp1","2022-4-27","10:18:1","25","75","3","9","10","40","30","120","65","21","[""Black or African-American""]","No","Female","2026255","null","null","","","","clear_screen","","","","","","","","","","","","","","","","","","","","","","","","","",""
"","","","","","canvas-keyboard-response","279","383403","0.0-12.0-2.53","2d_cat_multi_stim_exp1","2022-4-27","10:18:1","25","75","3","9","10","40","30","120","65","21","[""Black or African-American""]","No","Female","2026255","863","i","learn","","","learn_trial","30","50","out","0","1","","","","","","","","","","","","","","","","","","","","",""
"","","","","","canvas-keyboard-response","280","383915","0.0-12.0-3.53","2d_cat_multi_stim_exp1","2022-4-27","10:18:1","25","75","3","9","10","40","30","120","65","21","[""Black or African-American""]","No","Female","2026255","null","null","learn_feedback","","","learn_feedback","30","50","out","","","","","","","","","","","","","","","","","","","","","","",""
