"success","timeout","failed_images","failed_audio","failed_video","trial_type","trial_index","time_elapsed","internal_node_id","exp_name","date","time","angle_mean_in","radius_mean_in","angle_sd_in","radius_sd_in","angle_min_out","angle_max_out","radius_min_out","radius_max_out","sub_n","age","race","ethnicity","gender","exp_duration","rt","response","exp_trial_type","stimulus","view_history","screen_id","angle","radius","distribution","choice","correct","order","angle_a","radius_a","angle_b","radius_b","jkl_correct","transfer_trial_type","choice_set","abc_correct","tc_correct","tc_angle","tdc_a","tdc_b","tdc_c","pair","category_a","category_b","category_c","angle_c","radius_c","question_order"
"true","false","[]","[]","[]","preload","0","20","0.0-0.0","2d_cat_multi_stim_exp1","2022-4-25","10:51:20","25","75","3","9","10","40","30","120","54","20","[""Asian""]","No","Female","1810958","","","","","","","","","","","","","","","","","","","","","","","","","","","","","","","",""
"","","","","","survey-html-form","1","4483","0.0-1.0","2d_cat_multi_stim_exp1","2022-4-25","10:51:20","25","75","3","9","10","40","30","120","54","20","[""Asian""]","No","Female","1810958","4453","{""response"":""54""}","enter-sub-number","","","","","","","","","","","","","","","","","","","","","","","","","","","","",""
"true","","","","","fullscreen","2","17289","0.0-2.0","2d_cat_multi_stim_exp1","2022-4-25","10:51:20","25","75","3","9","10","40","30","120","54","20","[""Asian""]","No","Female","1810958","","","","","","","","","","","","","","","","","","","","","","","","","","","","","","","",""
"","","","","","image-button-response","3","47409","0.0-3.0","2d_cat_multi_stim_exp1","2022-4-25","10:51:20","25","75","3","9","10","40","30","120","54","20","[""Asian""]","No","Female","1810958","30110","0","","consent.png","","","","","","","","","","","","","","","","","","","","","","","","","","","",""
"","","","","","html-button-response","4","50185","0.0-4.0","2d_cat_multi_stim_exp1","2022-4-25","10:51:20","25","75","3","9","10","40","30","120","54","20","[""Asian""]","No","Female","1810958","2771","0","","<div style= ""font-size:25px;"" <p> <strong> Welcome to the experiment! </strong><br> <p style=""color:#8B0000; font-size:25px;""><strong> Please do NOT exit full screen until you are done with the experiment. </strong> </p><p style=""font-size:25px;color:#8B0000;""> <strong> The experiment will be canceled and your data will be lost <br> if you try to go back or refresh the page at any point during the experiment.</strong> </p><br><p> <strong> Thanks in advance for your contribution to our research! </strong></p>","","","","","","","","","","","","","","","","","","","","","","","","","","","",""
"","","","","","instructions","5","88338","0.0-5.0","2d_cat_multi_stim_exp1","2022-4-25","10:51:20","25","75","3","9","10","40","30","120","54","20","[""Asian""]","No","Female","1810958","38149","","","","[{""page_index"":0,""viewing_time"":5829},{""page_index"":1,""viewing_time"":2520},{""page_index"":2,""viewing_time"":12264},{""page_index"":3,""viewing_time"":17535}]","instructions_1","","","","","","","","","","","","","","","","","","","","","","","","","",""
"","","","","","instructions","6","90377","0.0-6.0","2d_cat_multi_stim_exp1","2022-4-25","10:51:20","25","75","3","9","10","40","30","120","54","20","[""Asian""]","No","Female","1810958","2034","","","","[{""page_index"":0,""viewing_time"":2033}]","Click to see the kinds of turtles that will appear in the study.","","","","","","","","","","","","","","","","","","","","","","","","","",""
"","","","","","canvas-keyboard-response","7","105394","0.0-7.0","2d_cat_multi_stim_exp1","2022-4-25","10:51:20","25","75","3","9","10","40","30","120","54","20","[""Asian""]","No","Female","1810958","null","null","","","","demo_range","","","","","","","","","","","","","","","","","","","","","","","","","",""
"","","","","","instructions","8","107866","0.0-8.0","2d_cat_multi_stim_exp1","2022-4-25","10:51:20","25","75","3","9","10","40","30","120","54","20","[""Asian""]","No","Female","1810958","1969","","","","[{""page_index"":0,""viewing_time"":1968}]","Click to see some turtles in the subspecies.","","","","","","","","","","","","","","","","","","","","","","","","","",""
"","","","","","canvas-keyboard-response","9","122882","0.0-9.0","2d_cat_multi_stim_exp1","2022-4-25","10:51:20","25","75","3","9","10","40","30","120","54","20","[""Asian""]","No","Female","1810958","null","null","","","","demo_in","","","","","","","","","","","","","","","","","","","","","","","","","",""
"","","","","","instructions","10","153384","0.0-10.0","2d_cat_multi_stim_exp1","2022-4-25","10:51:20","25","75","3","9","10","40","30","120","54","20","[""Asian""]","No","Female","1810958","29999","","","","[{""page_index"":0,""viewing_time"":6623},{""page_index"":1,""viewing_time"":18273},{""page_index"":2,""viewing_time"":5103}]","instructions_2","","","","","","","","","","","","","","","","","","","","","","","","","",""
"","","","","","instructions","11","154880","0.0-11.0","2d_cat_multi_stim_exp1","2022-4-25","10:51:20","25","75","3","9","10","40","30","120","54","20","[""Asian""]","No","Female","1810958","1495","","","","[{""page_index"":0,""viewing_time"":1495}]","Click to begin the first phase of the experiment.","","","","","","","","","","","","","","","","","","","","","","","","","",""
"","","","","","canvas-keyboard-response","12","155390","0.0-12.0-0.0","2d_cat_multi_stim_exp1","2022-4-25","10:51:20","25","75","3","9","10","40","30","120","54","20","[""Asian""]","No","Female","1810958","null","null","","","","fixation","","","","","","","","","","","","","","","","","","","","","","","","","",""
"","","","","","canvas-keyboard-response","13","155901","0.0-12.0-1.0","2d_cat_multi_stim_exp1","2022-4-25","10:51:20","25","75","3","9","10","40","30","120","54","20","[""Asian""]","No","Female","1810958","null","null","","","","clear_screen","","","","","","","","","","","","","","","","","","","","","","","","","",""
"","","","","","canvas-keyboard-response","14","157673","0.0-12.0-2.0","2d_cat_multi_stim_exp1","2022-4-25","10:51:20","25","75","3","9","10","40","30","120","54","20","[""Asian""]","No","Female","1810958","1762","u","learn","","","learn_trial","26.8705","67.9635","in","1","1","","","","","","","","","","","","","","","","","","","","",""
"","","","","","canvas-keyboard-response","15","158183","0.0-12.0-3.0","2d_cat_multi_stim_exp1","2022-4-25","10:51:20","25","75","3","9","10","40","30","120","54","20","[""Asian""]","No","Female","1810958","null","null","learn_feedback","","","learn_feedback","26.8705","67.9635","in","","","","","","","","","","","","","","","","","","","","","","",""
"","","","","","canvas-keyboard-response","16","158246","0.0-12.0-4.0","2d_cat_multi_stim_exp1","2022-4-25","10:51:20","25","75","3","9","10","40","30","120","54","20","[""Asian""]","No","Female","1810958","null","null","","","","clear_screen","","","","","","","","","","","","","","","","","","","","","","","","","",""
"","","","","","canvas-keyboard-response","17","158758","0.0-12.0-0.1","2d_cat_multi_stim_exp1","2022-4-25","10:51:20","25","75","3","9","10","40","30","120","54","20","[""Asian""]","No","Female","1810958","null","null","","","","fixation","","","","","","","","","","","","","","","","","","","","","","","","","",""
"","","","","","canvas-keyboard-response","18","159267","0.0-12.0-1.1","2d_cat_multi_stim_exp1","2022-4-25","10:51:20","25","75","3","9","10","40","30","120","54","20","[""Asian""]","No","Female","1810958","null","null","","","","clear_screen","","","","","","","","","","","","","","","","","","","","","","","","","",""
"","","","","","canvas-keyboard-response","19","160817","0.0-12.0-2.1","2d_cat_multi_stim_exp1","2022-4-25","10:51:20","25","75","3","9","10","40","30","120","54","20","[""Asian""]","No","Female","1810958","1538","i","learn","","","learn_trial","20","60","out","0","1","","","","","","","","","","","","","","","","","","","","",""
"","","","","","canvas-keyboard-response","20","161329","0.0-12.0-3.1","2d_cat_multi_stim_exp1","2022-4-25","10:51:20","25","75","3","9","10","40","30","120","54","20","[""Asian""]","No","Female","1810958","null","null","learn_feedback","","","learn_feedback","20","60","out","","","","","","","","","","","","","","","","","","","","","","",""
"","","","","","canvas-keyboard-response","21","161386","0.0-12.0-4.1","2d_cat_multi_stim_exp1","2022-4-25","10:51:20","25","75","3","9","10","40","30","120","54","20","[""Asian""]","No","Female","1810958","null","null","","","","clear_screen","","","","","","","","","","","","","","","","","","","","","","","","","",""
"","","","","","canvas-keyboard-response","22","161897","0.0-12.0-0.2","2d_cat_multi_stim_exp1","2022-4-25","10:51:20","25","75","3","9","10","40","30","120","54","20","[""Asian""]","No","Female","1810958","null","null","","","","fixation","","","","","","","","","","","","","","","","","","","","","","","","","",""
"","","","","","canvas-keyboard-response","23","162406","0.0-12.0-1.2","2d_cat_multi_stim_exp1","2022-4-25","10:51:20","25","75","3","9","10","40","30","120","54","20","[""Asian""]","No","Female","1810958","null","null","","","","clear_screen","","","","","","","","","","","","","","","","","","","","","","","","","",""
"","","","","","canvas-keyboard-response","24","163423","0.0-12.0-2.2","2d_cat_multi_stim_exp1","2022-4-25","10:51:20","25","75","3","9","10","40","30","120","54","20","[""Asian""]","No","Female","1810958","1008","u","learn","","","learn_trial","22.2971","71.095","in","1","1","","","","","","","","","","","","","","","","","","","","",""
"","","","","","canvas-keyboard-response","25","163935","0.0-12.0-3.2","2d_cat_multi_stim_exp1","2022-4-25","10:51:20","25","75","3","9","10","40","30","120","54","20","[""Asian""]","No","Female","1810958","null","null","learn_feedback","","","learn_feedback","22.2971","71.095","in","","","","","","","","","","","","","","","","","","","","","","",""
"","","","","","canvas-keyboard-response","26","163996","0.0-12.0-4.2","2d_cat_multi_stim_exp1","2022-4-25","10:51:20","25","75","3","9","10","40","30","120","54","20","[""Asian""]","No","Female","1810958","null","null","","","","clear_screen","","","","","","","","","","","","","","","","","","","","","","","","","",""
"","","","","","canvas-keyboard-response","27","164506","0.0-12.0-0.3","2d_cat_multi_stim_exp1","2022-4-25","10:51:20","25","75","3","9","10","40","30","120","54","20","[""Asian""]","No","Female","1810958","null","null","","","","fixation","","","","","","","","","","","","","","","","","","","","","","","","","",""
"","","","","","canvas-keyboard-response","28","165016","0.0-12.0-1.3","2d_cat_multi_stim_exp1","2022-4-25","10:51:20","25","75","3","9","10","40","30","120","54","20","[""Asian""]","No","Female","1810958","null","null","","","","clear_screen","","","","","","","","","","","","","","","","","","","","","","","","","",""
"","","","","","canvas-keyboard-response","29","166056","0.0-12.0-2.3","2d_cat_multi_stim_exp1","2022-4-25","10:51:20","25","75","3","9","10","40","30","120","54","20","[""Asian""]","No","Female","1810958","1022","i","learn","","","learn_trial","20","100","out","0","1","","","","","","","","","","","","","","","","","","","","",""
"","","","","","canvas-keyboard-response","30","166566","0.0-12.0-3.3","2d_cat_multi_stim_exp1","2022-4-25","10:51:20","25","75","3","9","10","40","30","120","54","20","[""Asian""]","No","Female","1810958","null","null","learn_feedback","","","learn_feedback","20","100","out","","","","","","","","","","","","","","","","","","","","","","",""
"","","","","","canvas-keyboard-response","31","166629","0.0-12.0-4.3","2d_cat_multi_stim_exp1","2022-4-25","10:51:20","25","75","3","9","10","40","30","120","54","20","[""Asian""]","No","Female","1810958","null","null","","","","clear_screen","","","","","","","","","","","","","","","","","","","","","","","","","",""
"","","","","","canvas-keyboard-response","32","167141","0.0-12.0-0.4","2d_cat_multi_stim_exp1","2022-4-25","10:51:20","25","75","3","9","10","40","30","120","54","20","[""Asian""]","No","Female","1810958","null","null","","","","fixation","","","","","","","","","","","","","","","","","","","","","","","","","",""
"","","","","","canvas-keyboard-response","33","167655","0.0-12.0-1.4","2d_cat_multi_stim_exp1","2022-4-25","10:51:20","25","75","3","9","10","40","30","120","54","20","[""Asian""]","No","Female","1810958","null","null","","","","clear_screen","","","","","","","","","","","","","","","","","","","","","","","","","",""
"","","","","","canvas-keyboard-response","34","168521","0.0-12.0-2.4","2d_cat_multi_stim_exp1","2022-4-25","10:51:20","25","75","3","9","10","40","30","120","54","20","[""Asian""]","No","Female","1810958","859","u","learn","","","learn_trial","20","70","out","1","0","","","","","","","","","","","","","","","","","","","","",""
"","","","","","canvas-keyboard-response","35","169532","0.0-12.0-3.4","2d_cat_multi_stim_exp1","2022-4-25","10:51:20","25","75","3","9","10","40","30","120","54","20","[""Asian""]","No","Female","1810958","null","null","learn_feedback","","","learn_feedback","20","70","out","","","","","","","","","","","","","","","","","","","","","","",""
"","","","","","canvas-keyboard-response","36","169591","0.0-12.0-4.4","2d_cat_multi_stim_exp1","2022-4-25","10:51:20","25","75","3","9","10","40","30","120","54","20","[""Asian""]","No","Female","1810958","null","null","","","","clear_screen","","","","","","","","","","","","","","","","","","","","","","","","","",""
"","","","","","canvas-keyboard-response","37","170101","0.0-12.0-0.5","2d_cat_multi_stim_exp1","2022-4-25","10:51:20","25","75","3","9","10","40","30","120","54","20","[""Asian""]","No","Female","1810958","null","null","","","","fixation","","","","","","","","","","","","","","","","","","","","","","","","","",""
"","","","","","canvas-keyboard-response","38","170615","0.0-12.0-1.5","2d_cat_multi_stim_exp1","2022-4-25","10:51:20","25","75","3","9","10","40","30","120","54","20","[""Asian""]","No","Female","1810958","null","null","","","","clear_screen","","","","","","","","","","","","","","","","","","","","","","","","","",""
"","","","","","canvas-keyboard-response","39","172184","0.0-12.0-2.5","2d_cat_multi_stim_exp1","2022-4-25","10:51:20","25","75","3","9","10","40","30","120","54","20","[""Asian""]","No","Female","1810958","1559","i","learn","","","learn_trial","13.3333","60","out","0","1","","","","","","","","","","","","","","","","","","","","",""
"","","","","","canvas-keyboard-response","40","172695","0.0-12.0-3.5","2d_cat_multi_stim_exp1","2022-4-25","10:51:20","25","75","3","9","10","40","30","120","54","20","[""Asian""]","No","Female","1810958","null","null","learn_feedback","","","learn_feedback","13.3333","60","out","","","","","","","","","","","","","","","","","","","","","","",""
"","","","","","canvas-keyboard-response","41","172756","0.0-12.0-4.5","2d_cat_multi_stim_exp1","2022-4-25","10:51:20","25","75","3","9","10","40","30","120","54","20","[""Asian""]","No","Female","1810958","null","null","","","","clear_screen","","","","","","","","","","","","","","","","","","","","","","","","","",""
"","","","","","canvas-keyboard-response","42","173266","0.0-12.0-0.6","2d_cat_multi_stim_exp1","2022-4-25","10:51:20","25","75","3","9","10","40","30","120","54","20","[""Asian""]","No","Female","1810958","null","null","","","","fixation","","","","","","","","","","","","","","","","","","","","","","","","","",""
"","","","","","canvas-keyboard-response","43","173775","0.0-12.0-1.6","2d_cat_multi_stim_exp1","2022-4-25","10:51:20","25","75","3","9","10","40","30","120","54","20","[""Asian""]","No","Female","1810958","null","null","","","","clear_screen","","","","","","","","","","","","","","","","","","","","","","","","","",""
"","","","","","canvas-keyboard-response","44","175920","0.0-12.0-2.6","2d_cat_multi_stim_exp1","2022-4-25","10:51:20","25","75","3","9","10","40","30","120","54","20","[""Asian""]","No","Female","1810958","2132","u","learn","","","learn_trial","27.8087","78.1624","in","1","1","","","","","","","","","","","","","","","","","","","","",""
"","","","","","canvas-keyboard-response","45","176434","0.0-12.0-3.6","2d_cat_multi_stim_exp1","2022-4-25","10:51:20","25","75","3","9","10","40","30","120","54","20","[""Asian""]","No","Female","1810958","null","null","learn_feedback","","","learn_feedback","27.8087","78.1624","in","","","","","","","","","","","","","","","","","","","","","","",""
"","","","","","canvas-keyboard-response","46","176494","0.0-12.0-4.6","2d_cat_multi_stim_exp1","2022-4-25","10:51:20","25","75","3","9","10","40","30","120","54","20","[""Asian""]","No","Female","1810958","null","null","","","","clear_screen","","","","","","","","","","","","","","","","","","","","","","","","","",""
"","","","","","canvas-keyboard-response","47","177002","0.0-12.0-0.7","2d_cat_multi_stim_exp1","2022-4-25","10:51:20","25","75","3","9","10","40","30","120","54","20","[""Asian""]","No","Female","1810958","null","null","","","","fixation","","","","","","","","","","","","","","","","","","","","","","","","","",""
"","","","","","canvas-keyboard-response","48","177513","0.0-12.0-1.7","2d_cat_multi_stim_exp1","2022-4-25","10:51:20","25","75","3","9","10","40","30","120","54","20","[""Asian""]","No","Female","1810958","null","null","","","","clear_screen","","","","","","","","","","","","","","","","","","","","","","","","","",""
"","","","","","canvas-keyboard-response","49","178489","0.0-12.0-2.7","2d_cat_multi_stim_exp1","2022-4-25","10:51:20","25","75","3","9","10","40","30","120","54","20","[""Asian""]","No","Female","1810958","966","i","learn","","","learn_trial","20","40","out","0","1","","","","","","","","","","","","","","","","","","","","",""
"","","","","","canvas-keyboard-response","50","179001","0.0-12.0-3.7","2d_cat_multi_stim_exp1","2022-4-25","10:51:20","25","75","3","9","10","40","30","120","54","20","[""Asian""]","No","Female","1810958","null","null","learn_feedback","","","learn_feedback","20","40","out","","","","","","","","","","","","","","","","","","","","","","",""
"","","","","","canvas-keyboard-response","51","179061","0.0-12.0-4.7","2d_cat_multi_stim_exp1","2022-4-25","10:51:20","25","75","3","9","10","40","30","120","54","20","[""Asian""]","No","Female","1810958","null","null","","","","clear_screen","","","","","","","","","","","","","","","","","","","","","","","","","",""
"","","","","","canvas-keyboard-response","52","179566","0.0-12.0-0.8","2d_cat_multi_stim_exp1","2022-4-25","10:51:20","25","75","3","9","10","40","30","120","54","20","[""Asian""]","No","Female","1810958","null","null","","","","fixation","","","","","","","","","","","","","","","","","","","","","","","","","",""
"","","","","","canvas-keyboard-response","53","180077","0.0-12.0-1.8","2d_cat_multi_stim_exp1","2022-4-25","10:51:20","25","75","3","9","10","40","30","120","54","20","[""Asian""]","No","Female","1810958","null","null","","","","clear_screen","","","","","","","","","","","","","","","","","","","","","","","","","",""
"","","","","","canvas-keyboard-response","54","180840","0.0-12.0-2.8","2d_cat_multi_stim_exp1","2022-4-25","10:51:20","25","75","3","9","10","40","30","120","54","20","[""Asian""]","No","Female","1810958","754","u","learn","","","learn_trial","23.8209","66.7243","in","1","1","","","","","","","","","","","","","","","","","","","","",""
"","","","","","canvas-keyboard-response","55","181351","0.0-12.0-3.8","2d_cat_multi_stim_exp1","2022-4-25","10:51:20","25","75","3","9","10","40","30","120","54","20","[""Asian""]","No","Female","1810958","null","null","learn_feedback","","","learn_feedback","23.8209","66.7243","in","","","","","","","","","","","","","","","","","","","","","","",""
"","","","","","canvas-keyboard-response","56","181412","0.0-12.0-4.8","2d_cat_multi_stim_exp1","2022-4-25","10:51:20","25","75","3","9","10","40","30","120","54","20","[""Asian""]","No","Female","1810958","null","null","","","","clear_screen","","","","","","","","","","","","","","","","","","","","","","","","","",""
"","","","","","canvas-keyboard-response","57","181920","0.0-12.0-0.9","2d_cat_multi_stim_exp1","2022-4-25","10:51:20","25","75","3","9","10","40","30","120","54","20","[""Asian""]","No","Female","1810958","null","null","","","","fixation","","","","","","","","","","","","","","","","","","","","","","","","","",""
"","","","","","canvas-keyboard-response","58","182432","0.0-12.0-1.9","2d_cat_multi_stim_exp1","2022-4-25","10:51:20","25","75","3","9","10","40","30","120","54","20","[""Asian""]","No","Female","1810958","null","null","","","","clear_screen","","","","","","","","","","","","","","","","","","","","","","","","","",""
"","","","","","canvas-keyboard-response","59","183368","0.0-12.0-2.9","2d_cat_multi_stim_exp1","2022-4-25","10:51:20","25","75","3","9","10","40","30","120","54","20","[""Asian""]","No","Female","1810958","929","i","learn","","","learn_trial","23.3333","110","out","0","1","","","","","","","","","","","","","","","","","","","","",""
"","","","","","canvas-keyboard-response","60","183877","0.0-12.0-3.9","2d_cat_multi_stim_exp1","2022-4-25","10:51:20","25","75","3","9","10","40","30","120","54","20","[""Asian""]","No","Female","1810958","null","null","learn_feedback","","","learn_feedback","23.3333","110","out","","","","","","","","","","","","","","","","","","","","","","",""
"","","","","","canvas-keyboard-response","61","183935","0.0-12.0-4.9","2d_cat_multi_stim_exp1","2022-4-25","10:51:20","25","75","3","9","10","40","30","120","54","20","[""Asian""]","No","Female","1810958","null","null","","","","clear_screen","","","","","","","","","","","","","","","","","","","","","","","","","",""
"","","","","","canvas-keyboard-response","62","184446","0.0-12.0-0.10","2d_cat_multi_stim_exp1","2022-4-25","10:51:20","25","75","3","9","10","40","30","120","54","20","[""Asian""]","No","Female","1810958","null","null","","","","fixation","","","","","","","","","","","","","","","","","","","","","","","","","",""
"","","","","","canvas-keyboard-response","63","184957","0.0-12.0-1.10","2d_cat_multi_stim_exp1","2022-4-25","10:51:20","25","75","3","9","10","40","30","120","54","20","[""Asian""]","No","Female","1810958","null","null","","","","clear_screen","","","","","","","","","","","","","","","","","","","","","","","","","",""
"","","","","","canvas-keyboard-response","64","186001","0.0-12.0-2.10","2d_cat_multi_stim_exp1","2022-4-25","10:51:20","25","75","3","9","10","40","30","120","54","20","[""Asian""]","No","Female","1810958","1034","u","learn","","","learn_trial","25","75","in","1","1","","","","","","","","","","","","","","","","","","","","",""
"","","","","","canvas-keyboard-response","65","186514","0.0-12.0-3.10","2d_cat_multi_stim_exp1","2022-4-25","10:51:20","25","75","3","9","10","40","30","120","54","20","[""Asian""]","No","Female","1810958","null","null","learn_feedback","","","learn_feedback","25","75","in","","","","","","","","","","","","","","","","","","","","","","",""
"","","","","","canvas-keyboard-response","66","186573","0.0-12.0-4.10","2d_cat_multi_stim_exp1","2022-4-25","10:51:20","25","75","3","9","10","40","30","120","54","20","[""Asian""]","No","Female","1810958","null","null","","","","clear_screen","","","","","","","","","","","","","","","","","","","","","","","","","",""
"","","","","","canvas-keyboard-response","67","187082","0.0-12.0-0.11","2d_cat_multi_stim_exp1","2022-4-25","10:51:20","25","75","3","9","10","40","30","120","54","20","[""Asian""]","No","Female","1810958","null","null","","","","fixation","","","","","","","","","","","","","","","","","","","","","","","","","",""
"","","","","","canvas-keyboard-response","68","187591","0.0-12.0-1.11","2d_cat_multi_stim_exp1","2022-4-25","10:51:20","25","75","3","9","10","40","30","120","54","20","[""Asian""]","No","Female","1810958","null","null","","","","clear_screen","","","","","","","","","","","","","","","","","","","","","","","","","",""
"","","","","","canvas-keyboard-response","69","188632","0.0-12.0-2.11","2d_cat_multi_stim_exp1","2022-4-25","10:51:20","25","75","3","9","10","40","30","120","54","20","[""Asian""]","No","Female","1810958","1032","i","learn","","","learn_trial","40","50","out","0","1","","","","","","","","","","","","","","","","","","","","",""
"","","","","","canvas-keyboard-response","70","189143","0.0-12.0-3.11","2d_cat_multi_stim_exp1","2022-4-25","10:51:20","25","75","3","9","10","40","30","120","54","20","[""Asian""]","No","Female","1810958","null","null","learn_feedback","","","learn_feedback","40","50","out","","","","","","","","","","","","","","","","","","","","","","",""
"","","","","","canvas-keyboard-response","71","189204","0.0-12.0-4.11","2d_cat_multi_stim_exp1","2022-4-25","10:51:20","25","75","3","9","10","40","30","120","54","20","[""Asian""]","No","Female","1810958","null","null","","","","clear_screen","","","","","","","","","","","","","","","","","","","","","","","","","",""
"","","","","","canvas-keyboard-response","72","189712","0.0-12.0-0.12","2d_cat_multi_stim_exp1","2022-4-25","10:51:20","25","75","3","9","10","40","30","120","54","20","[""Asian""]","No","Female","1810958","null","null","","","","fixation","","","","","","","","","","","","","","","","","","","","","","","","","",""
"","","","","","canvas-keyboard-response","73","190221","0.0-12.0-1.12","2d_cat_multi_stim_exp1","2022-4-25","10:51:20","25","75","3","9","10","40","30","120","54","20","[""Asian""]","No","Female","1810958","null","null","","","","clear_screen","","","","","","","","","","","","","","","","","","","","","","","","","",""
"","","","","","canvas-keyboard-response","74","191168","0.0-12.0-2.12","2d_cat_multi_stim_exp1","2022-4-25","10:51:20","25","75","3","9","10","40","30","120","54","20","[""Asian""]","No","Female","1810958","938","i","learn","","","learn_trial","10","40","out","0","1","","","","","","","","","","","","","","","","","","","","",""
"","","","","","canvas-keyboard-response","75","191680","0.0-12.0-3.12","2d_cat_multi_stim_exp1","2022-4-25","10:51:20","25","75","3","9","10","40","30","120","54","20","[""Asian""]","No","Female","1810958","null","null","learn_feedback","","","learn_feedback","10","40","out","","","","","","","","","","","","","","","","","","","","","","",""
"","","","","","canvas-keyboard-response","76","191738","0.0-12.0-4.12","2d_cat_multi_stim_exp1","2022-4-25","10:51:20","25","75","3","9","10","40","30","120","54","20","[""Asian""]","No","Female","1810958","null","null","","","","clear_screen","","","","","","","","","","","","","","","","","","","","","","","","","",""
"","","","","","canvas-keyboard-response","77","192246","0.0-12.0-0.13","2d_cat_multi_stim_exp1","2022-4-25","10:51:20","25","75","3","9","10","40","30","120","54","20","[""Asian""]","No","Female","1810958","null","null","","","","fixation","","","","","","","","","","","","","","","","","","","","","","","","","",""
"","","","","","canvas-keyboard-response","78","192760","0.0-12.0-1.13","2d_cat_multi_stim_exp1","2022-4-25","10:51:20","25","75","3","9","10","40","30","120","54","20","[""Asian""]","No","Female","1810958","null","null","","","","clear_screen","","","","","","","","","","","","","","","","","","","","","","","","","",""
"","","","","","canvas-keyboard-response","79","193545","0.0-12.0-2.13","2d_cat_multi_stim_exp1","2022-4-25","10:51:20","25","75","3","9","10","40","30","120","54","20","[""Asian""]","No","Female","1810958","775","u","learn","","","learn_trial","25.4027","66.0815","in","1","1","","","","","","","","","","","","","","","","","","","","",""
"","","","","","canvas-keyboard-response","80","194059","0.0-12.0-3.13","2d_cat_multi_stim_exp1","2022-4-25","10:51:20","25","75","3","9","10","40","30","120","54","20","[""Asian""]","No","Female","1810958","null","null","learn_feedback","","","learn_feedback","25.4027","66.0815","in","","","","","","","","","","","","","","","","","","","","","","",""
"","","","","","canvas-keyboard-response","81","194122","0.0-12.0-4.13","2d_cat_multi_stim_exp1","2022-4-25","10:51:20","25","75","3","9","10","40","30","120","54","20","[""Asian""]","No","Female","1810958","null","null","","","","clear_screen","","","","","","","","","","","","","","","","","","","","","","","","","",""
"","","","","","canvas-keyboard-response","82","194631","0.0-12.0-0.14","2d_cat_multi_stim_exp1","2022-4-25","10:51:20","25","75","3","9","10","40","30","120","54","20","[""Asian""]","No","Female","1810958","null","null","","","","fixation","","","","","","","","","","","","","","","","","","","","","","","","","",""
"","","","","","canvas-keyboard-response","83","195146","0.0-12.0-1.14","2d_cat_multi_stim_exp1","2022-4-25","10:51:20","25","75","3","9","10","40","30","120","54","20","[""Asian""]","No","Female","1810958","null","null","","","","clear_screen","","","","","","","","","","","","","","","","","","","","","","","","","",""
"","","","","","canvas-keyboard-response","84","195958","0.0-12.0-2.14","2d_cat_multi_stim_exp1","2022-4-25","10:51:20","25","75","3","9","10","40","30","120","54","20","[""Asian""]","No","Female","1810958","802","i","learn","","","learn_trial","33.3333","120","out","0","1","","","","","","","","","","","","","","","","","","","","",""
"","","","","","canvas-keyboard-response","85","196464","0.0-12.0-3.14","2d_cat_multi_stim_exp1","2022-4-25","10:51:20","25","75","3","9","10","40","30","120","54","20","[""Asian""]","No","Female","1810958","null","null","learn_feedback","","","learn_feedback","33.3333","120","out","","","","","","","","","","","","","","","","","","","","","","",""
"","","","","","canvas-keyboard-response","86","196523","0.0-12.0-4.14","2d_cat_multi_stim_exp1","2022-4-25","10:51:20","25","75","3","9","10","40","30","120","54","20","[""Asian""]","No","Female","1810958","null","null","","","","clear_screen","","","","","","","","","","","","","","","","","","","","","","","","","",""
"","","","","","canvas-keyboard-response","87","197032","0.0-12.0-0.15","2d_cat_multi_stim_exp1","2022-4-25","10:51:20","25","75","3","9","10","40","30","120","54","20","[""Asian""]","No","Female","1810958","null","null","","","","fixation","","","","","","","","","","","","","","","","","","","","","","","","","",""
"","","","","","canvas-keyboard-response","88","197542","0.0-12.0-1.15","2d_cat_multi_stim_exp1","2022-4-25","10:51:20","25","75","3","9","10","40","30","120","54","20","[""Asian""]","No","Female","1810958","null","null","","","","clear_screen","","","","","","","","","","","","","","","","","","","","","","","","","",""
"","","","","","canvas-keyboard-response","89","198722","0.0-12.0-2.15","2d_cat_multi_stim_exp1","2022-4-25","10:51:20","25","75","3","9","10","40","30","120","54","20","[""Asian""]","No","Female","1810958","1170","i","learn","","","learn_trial","26.6667","50","out","0","1","","","","","","","","","","","","","","","","","","","","",""
"","","","","","canvas-keyboard-response","90","199233","0.0-12.0-3.15","2d_cat_multi_stim_exp1","2022-4-25","10:51:20","25","75","3","9","10","40","30","120","54","20","[""Asian""]","No","Female","1810958","null","null","learn_feedback","","","learn_feedback","26.6667","50","out","","","","","","","","","","","","","","","","","","","","","","",""
"","","","","","canvas-keyboard-response","91","199294","0.0-12.0-4.15","2d_cat_multi_stim_exp1","2022-4-25","10:51:20","25","75","3","9","10","40","30","120","54","20","[""Asian""]","No","Female","1810958","null","null","","","","clear_screen","","","","","","","","","","","","","","","","","","","","","","","","","",""
"","","","","","canvas-keyboard-response","92","199802","0.0-12.0-0.16","2d_cat_multi_stim_exp1","2022-4-25","10:51:20","25","75","3","9","10","40","30","120","54","20","[""Asian""]","No","Female","1810958","null","null","","","","fixation","","","","","","","","","","","","","","","","","","","","","","","","","",""
"","","","","","canvas-keyboard-response","93","200312","0.0-12.0-1.16","2d_cat_multi_stim_exp1","2022-4-25","10:51:20","25","75","3","9","10","40","30","120","54","20","[""Asian""]","No","Female","1810958","null","null","","","","clear_screen","","","","","","","","","","","","","","","","","","","","","","","","","",""
"","","","","","canvas-keyboard-response","94","200961","0.0-12.0-2.16","2d_cat_multi_stim_exp1","2022-4-25","10:51:20","25","75","3","9","10","40","30","120","54","20","[""Asian""]","No","Female","1810958","640","u","learn","","","learn_trial","27.5753","70.3839","in","1","1","","","","","","","","","","","","","","","","","","","","",""
"","","","","","canvas-keyboard-response","95","201471","0.0-12.0-3.16","2d_cat_multi_stim_exp1","2022-4-25","10:51:20","25","75","3","9","10","40","30","120","54","20","[""Asian""]","No","Female","1810958","null","null","learn_feedback","","","learn_feedback","27.5753","70.3839","in","","","","","","","","","","","","","","","","","","","","","","",""
"","","","","","canvas-keyboard-response","96","201529","0.0-12.0-4.16","2d_cat_multi_stim_exp1","2022-4-25","10:51:20","25","75","3","9","10","40","30","120","54","20","[""Asian""]","No","Female","1810958","null","null","","","","clear_screen","","","","","","","","","","","","","","","","","","","","","","","","","",""
"","","","","","canvas-keyboard-response","97","202036","0.0-12.0-0.17","2d_cat_multi_stim_exp1","2022-4-25","10:51:20","25","75","3","9","10","40","30","120","54","20","[""Asian""]","No","Female","1810958","null","null","","","","fixation","","","","","","","","","","","","","","","","","","","","","","","","","",""
"","","","","","canvas-keyboard-response","98","202547","0.0-12.0-1.17","2d_cat_multi_stim_exp1","2022-4-25","10:51:20","25","75","3","9","10","40","30","120","54","20","[""Asian""]","No","Female","1810958","null","null","","","","clear_screen","","","","","","","","","","","","","","","","","","","","","","","","","",""
"","","","","","canvas-keyboard-response","99","203321","0.0-12.0-2.17","2d_cat_multi_stim_exp1","2022-4-25","10:51:20","25","75","3","9","10","40","30","120","54","20","[""Asian""]","No","Female","1810958","764","i","learn","","","learn_trial","13.3333","80","out","0","1","","","","","","","","","","","","","","","","","","","","",""
"","","","","","canvas-keyboard-response","100","203829","0.0-12.0-3.17","2d_cat_multi_stim_exp1","2022-4-25","10:51:20","25","75","3","9","10","40","30","120","54","20","[""Asian""]","No","Female","1810958","null","null","learn_feedback","","","learn_feedback","13.3333","80","out","","","","","","","","","","","","","","","","","","","","","","",""
"","","","","","canvas-keyboard-response","101","203894","0.0-12.0-4.17","2d_cat_multi_stim_exp1","2022-4-25","10:51:20","25","75","3","9","10","40","30","120","54","20","[""Asian""]","No","Female","1810958","null","null","","","","clear_screen","","","","","","","","","","","","","","","","","","","","","","","","","",""
"","","","","","canvas-keyboard-response","102","204401","0.0-12.0-0.18","2d_cat_multi_stim_exp1","2022-4-25","10:51:20","25","75","3","9","10","40","30","120","54","20","[""Asian""]","No","Female","1810958","null","null","","","","fixation","","","","","","","","","","","","","","","","","","","","","","","","","",""
"","","","","","canvas-keyboard-response","103","204914","0.0-12.0-1.18","2d_cat_multi_stim_exp1","2022-4-25","10:51:20","25","75","3","9","10","40","30","120","54","20","[""Asian""]","No","Female","1810958","null","null","","","","clear_screen","","","","","","","","","","","","","","","","","","","","","","","","","",""
"","","","","","canvas-keyboard-response","104","205688","0.0-12.0-2.18","2d_cat_multi_stim_exp1","2022-4-25","10:51:20","25","75","3","9","10","40","30","120","54","20","[""Asian""]","No","Female","1810958","764","u","learn","","","learn_trial","27.2592","80.9214","in","1","1","","","","","","","","","","","","","","","","","","","","",""
"","","","","","canvas-keyboard-response","105","206197","0.0-12.0-3.18","2d_cat_multi_stim_exp1","2022-4-25","10:51:20","25","75","3","9","10","40","30","120","54","20","[""Asian""]","No","Female","1810958","null","null","learn_feedback","","","learn_feedback","27.2592","80.9214","in","","","","","","","","","","","","","","","","","","","","","","",""
"","","","","","canvas-keyboard-response","106","206256","0.0-12.0-4.18","2d_cat_multi_stim_exp1","2022-4-25","10:51:20","25","75","3","9","10","40","30","120","54","20","[""Asian""]","No","Female","1810958","null","null","","","","clear_screen","","","","","","","","","","","","","","","","","","","","","","","","","",""
"","","","","","canvas-keyboard-response","107","206765","0.0-12.0-0.19","2d_cat_multi_stim_exp1","2022-4-25","10:51:20","25","75","3","9","10","40","30","120","54","20","[""Asian""]","No","Female","1810958","null","null","","","","fixation","","","","","","","","","","","","","","","","","","","","","","","","","",""
"","","","","","canvas-keyboard-response","108","207278","0.0-12.0-1.19","2d_cat_multi_stim_exp1","2022-4-25","10:51:20","25","75","3","9","10","40","30","120","54","20","[""Asian""]","No","Female","1810958","null","null","","","","clear_screen","","","","","","","","","","","","","","","","","","","","","","","","","",""
"","","","","","canvas-keyboard-response","109","207920","0.0-12.0-2.19","2d_cat_multi_stim_exp1","2022-4-25","10:51:20","25","75","3","9","10","40","30","120","54","20","[""Asian""]","No","Female","1810958","634","u","learn","","","learn_trial","25","75","in","1","1","","","","","","","","","","","","","","","","","","","","",""
"","","","","","canvas-keyboard-response","110","208434","0.0-12.0-3.19","2d_cat_multi_stim_exp1","2022-4-25","10:51:20","25","75","3","9","10","40","30","120","54","20","[""Asian""]","No","Female","1810958","null","null","learn_feedback","","","learn_feedback","25","75","in","","","","","","","","","","","","","","","","","","","","","","",""
"","","","","","canvas-keyboard-response","111","208497","0.0-12.0-4.19","2d_cat_multi_stim_exp1","2022-4-25","10:51:20","25","75","3","9","10","40","30","120","54","20","[""Asian""]","No","Female","1810958","null","null","","","","clear_screen","","","","","","","","","","","","","","","","","","","","","","","","","",""
"","","","","","canvas-keyboard-response","112","209005","0.0-12.0-0.20","2d_cat_multi_stim_exp1","2022-4-25","10:51:20","25","75","3","9","10","40","30","120","54","20","[""Asian""]","No","Female","1810958","null","null","","","","fixation","","","","","","","","","","","","","","","","","","","","","","","","","",""
"","","","","","canvas-keyboard-response","113","209517","0.0-12.0-1.20","2d_cat_multi_stim_exp1","2022-4-25","10:51:20","25","75","3","9","10","40","30","120","54","20","[""Asian""]","No","Female","1810958","null","null","","","","clear_screen","","","","","","","","","","","","","","","","","","","","","","","","","",""
"","","","","","canvas-keyboard-response","114","209912","0.0-12.0-2.20","2d_cat_multi_stim_exp1","2022-4-25","10:51:20","25","75","3","9","10","40","30","120","54","20","[""Asian""]","No","Female","1810958","385","u","learn","","","learn_trial","25.4027","83.9185","in","1","1","","","","","","","","","","","","","","","","","","","","",""
"","","","","","canvas-keyboard-response","115","210423","0.0-12.0-3.20","2d_cat_multi_stim_exp1","2022-4-25","10:51:20","25","75","3","9","10","40","30","120","54","20","[""Asian""]","No","Female","1810958","null","null","learn_feedback","","","learn_feedback","25.4027","83.9185","in","","","","","","","","","","","","","","","","","","","","","","",""
"","","","","","canvas-keyboard-response","116","210485","0.0-12.0-4.20","2d_cat_multi_stim_exp1","2022-4-25","10:51:20","25","75","3","9","10","40","30","120","54","20","[""Asian""]","No","Female","1810958","null","null","","","","clear_screen","","","","","","","","","","","","","","","","","","","","","","","","","",""
"","","","","","canvas-keyboard-response","117","210996","0.0-12.0-0.21","2d_cat_multi_stim_exp1","2022-4-25","10:51:20","25","75","3","9","10","40","30","120","54","20","[""Asian""]","No","Female","1810958","null","null","","","","fixation","","","","","","","","","","","","","","","","","","","","","","","","","",""
"","","","","","canvas-keyboard-response","118","211505","0.0-12.0-1.21","2d_cat_multi_stim_exp1","2022-4-25","10:51:20","25","75","3","9","10","40","30","120","54","20","[""Asian""]","No","Female","1810958","null","null","","","","clear_screen","","","","","","","","","","","","","","","","","","","","","","","","","",""
"","","","","","canvas-keyboard-response","119","212248","0.0-12.0-2.21","2d_cat_multi_stim_exp1","2022-4-25","10:51:20","25","75","3","9","10","40","30","120","54","20","[""Asian""]","No","Female","1810958","734","i","learn","","","learn_trial","23.3333","60","out","0","1","","","","","","","","","","","","","","","","","","","","",""
"","","","","","canvas-keyboard-response","120","212760","0.0-12.0-3.21","2d_cat_multi_stim_exp1","2022-4-25","10:51:20","25","75","3","9","10","40","30","120","54","20","[""Asian""]","No","Female","1810958","null","null","learn_feedback","","","learn_feedback","23.3333","60","out","","","","","","","","","","","","","","","","","","","","","","",""
"","","","","","canvas-keyboard-response","121","212820","0.0-12.0-4.21","2d_cat_multi_stim_exp1","2022-4-25","10:51:20","25","75","3","9","10","40","30","120","54","20","[""Asian""]","No","Female","1810958","null","null","","","","clear_screen","","","","","","","","","","","","","","","","","","","","","","","","","",""
"","","","","","canvas-keyboard-response","122","213329","0.0-12.0-0.22","2d_cat_multi_stim_exp1","2022-4-25","10:51:20","25","75","3","9","10","40","30","120","54","20","[""Asian""]","No","Female","1810958","null","null","","","","fixation","","","","","","","","","","","","","","","","","","","","","","","","","",""
"","","","","","canvas-keyboard-response","123","213838","0.0-12.0-1.22","2d_cat_multi_stim_exp1","2022-4-25","10:51:20","25","75","3","9","10","40","30","120","54","20","[""Asian""]","No","Female","1810958","null","null","","","","clear_screen","","","","","","","","","","","","","","","","","","","","","","","","","",""
"","","","","","canvas-keyboard-response","124","214585","0.0-12.0-2.22","2d_cat_multi_stim_exp1","2022-4-25","10:51:20","25","75","3","9","10","40","30","120","54","20","[""Asian""]","No","Female","1810958","737","i","learn","","","learn_trial","20","120","out","0","1","","","","","","","","","","","","","","","","","","","","",""
"","","","","","canvas-keyboard-response","125","215095","0.0-12.0-3.22","2d_cat_multi_stim_exp1","2022-4-25","10:51:20","25","75","3","9","10","40","30","120","54","20","[""Asian""]","No","Female","1810958","null","null","learn_feedback","","","learn_feedback","20","120","out","","","","","","","","","","","","","","","","","","","","","","",""
"","","","","","canvas-keyboard-response","126","215154","0.0-12.0-4.22","2d_cat_multi_stim_exp1","2022-4-25","10:51:20","25","75","3","9","10","40","30","120","54","20","[""Asian""]","No","Female","1810958","null","null","","","","clear_screen","","","","","","","","","","","","","","","","","","","","","","","","","",""
"","","","","","canvas-keyboard-response","127","215662","0.0-12.0-0.23","2d_cat_multi_stim_exp1","2022-4-25","10:51:20","25","75","3","9","10","40","30","120","54","20","[""Asian""]","No","Female","1810958","null","null","","","","fixation","","","","","","","","","","","","","","","","","","","","","","","","","",""
"","","","","","canvas-keyboard-response","128","216172","0.0-12.0-1.23","2d_cat_multi_stim_exp1","2022-4-25","10:51:20","25","75","3","9","10","40","30","120","54","20","[""Asian""]","No","Female","1810958","null","null","","","","clear_screen","","","","","","","","","","","","","","","","","","","","","","","","","",""
"","","","","","canvas-keyboard-response","129","216793","0.0-12.0-2.23","2d_cat_multi_stim_exp1","2022-4-25","10:51:20","25","75","3","9","10","40","30","120","54","20","[""Asian""]","No","Female","1810958","611","u","learn","","","learn_trial","25","75","in","1","1","","","","","","","","","","","","","","","","","","","","",""
"","","","","","canvas-keyboard-response","130","217302","0.0-12.0-3.23","2d_cat_multi_stim_exp1","2022-4-25","10:51:20","25","75","3","9","10","40","30","120","54","20","[""Asian""]","No","Female","1810958","null","null","learn_feedback","","","learn_feedback","25","75","in","","","","","","","","","","","","","","","","","","","","","","",""
"","","","","","canvas-keyboard-response","131","217360","0.0-12.0-4.23","2d_cat_multi_stim_exp1","2022-4-25","10:51:20","25","75","3","9","10","40","30","120","54","20","[""Asian""]","No","Female","1810958","null","null","","","","clear_screen","","","","","","","","","","","","","","","","","","","","","","","","","",""
"","","","","","canvas-keyboard-response","132","217867","0.0-12.0-0.24","2d_cat_multi_stim_exp1","2022-4-25","10:51:20","25","75","3","9","10","40","30","120","54","20","[""Asian""]","No","Female","1810958","null","null","","","","fixation","","","","","","","","","","","","","","","","","","","","","","","","","",""
"","","","","","canvas-keyboard-response","133","218375","0.0-12.0-1.24","2d_cat_multi_stim_exp1","2022-4-25","10:51:20","25","75","3","9","10","40","30","120","54","20","[""Asian""]","No","Female","1810958","null","null","","","","clear_screen","","","","","","","","","","","","","","","","","","","","","","","","","",""
"","","","","","canvas-keyboard-response","134","219416","0.0-12.0-2.24","2d_cat_multi_stim_exp1","2022-4-25","10:51:20","25","75","3","9","10","40","30","120","54","20","[""Asian""]","No","Female","1810958","1030","i","learn","","","learn_trial","20","90","out","0","1","","","","","","","","","","","","","","","","","","","","",""
"","","","","","canvas-keyboard-response","135","219925","0.0-12.0-3.24","2d_cat_multi_stim_exp1","2022-4-25","10:51:20","25","75","3","9","10","40","30","120","54","20","[""Asian""]","No","Female","1810958","null","null","learn_feedback","","","learn_feedback","20","90","out","","","","","","","","","","","","","","","","","","","","","","",""
"","","","","","canvas-keyboard-response","136","219985","0.0-12.0-4.24","2d_cat_multi_stim_exp1","2022-4-25","10:51:20","25","75","3","9","10","40","30","120","54","20","[""Asian""]","No","Female","1810958","null","null","","","","clear_screen","","","","","","","","","","","","","","","","","","","","","","","","","",""
"","","","","","canvas-keyboard-response","137","220493","0.0-12.0-0.25","2d_cat_multi_stim_exp1","2022-4-25","10:51:20","25","75","3","9","10","40","30","120","54","20","[""Asian""]","No","Female","1810958","null","null","","","","fixation","","","","","","","","","","","","","","","","","","","","","","","","","",""
"","","","","","canvas-keyboard-response","138","221004","0.0-12.0-1.25","2d_cat_multi_stim_exp1","2022-4-25","10:51:20","25","75","3","9","10","40","30","120","54","20","[""Asian""]","No","Female","1810958","null","null","","","","clear_screen","","","","","","","","","","","","","","","","","","","","","","","","","",""
"","","","","","canvas-keyboard-response","139","221712","0.0-12.0-2.25","2d_cat_multi_stim_exp1","2022-4-25","10:51:20","25","75","3","9","10","40","30","120","54","20","[""Asian""]","No","Female","1810958","696","u","learn","","","learn_trial","25","75","in","1","1","","","","","","","","","","","","","","","","","","","","",""
"","","","","","canvas-keyboard-response","140","222223","0.0-12.0-3.25","2d_cat_multi_stim_exp1","2022-4-25","10:51:20","25","75","3","9","10","40","30","120","54","20","[""Asian""]","No","Female","1810958","null","null","learn_feedback","","","learn_feedback","25","75","in","","","","","","","","","","","","","","","","","","","","","","",""
"","","","","","canvas-keyboard-response","141","222284","0.0-12.0-4.25","2d_cat_multi_stim_exp1","2022-4-25","10:51:20","25","75","3","9","10","40","30","120","54","20","[""Asian""]","No","Female","1810958","null","null","","","","clear_screen","","","","","","","","","","","","","","","","","","","","","","","","","",""
"","","","","","canvas-keyboard-response","142","222794","0.0-12.0-0.26","2d_cat_multi_stim_exp1","2022-4-25","10:51:20","25","75","3","9","10","40","30","120","54","20","[""Asian""]","No","Female","1810958","null","null","","","","fixation","","","","","","","","","","","","","","","","","","","","","","","","","",""
"","","","","","canvas-keyboard-response","143","223306","0.0-12.0-1.26","2d_cat_multi_stim_exp1","2022-4-25","10:51:20","25","75","3","9","10","40","30","120","54","20","[""Asian""]","No","Female","1810958","null","null","","","","clear_screen","","","","","","","","","","","","","","","","","","","","","","","","","",""
"","","","","","canvas-keyboard-response","144","224032","0.0-12.0-2.26","2d_cat_multi_stim_exp1","2022-4-25","10:51:20","25","75","3","9","10","40","30","120","54","20","[""Asian""]","No","Female","1810958","719","u","learn","","","learn_trial","30","80","out","1","0","","","","","","","","","","","","","","","","","","","","",""
"","","","","","canvas-keyboard-response","145","225044","0.0-12.0-3.26","2d_cat_multi_stim_exp1","2022-4-25","10:51:20","25","75","3","9","10","40","30","120","54","20","[""Asian""]","No","Female","1810958","null","null","learn_feedback","","","learn_feedback","30","80","out","","","","","","","","","","","","","","","","","","","","","","",""
"","","","","","canvas-keyboard-response","146","225105","0.0-12.0-4.26","2d_cat_multi_stim_exp1","2022-4-25","10:51:20","25","75","3","9","10","40","30","120","54","20","[""Asian""]","No","Female","1810958","null","null","","","","clear_screen","","","","","","","","","","","","","","","","","","","","","","","","","",""
"","","","","","canvas-keyboard-response","147","225615","0.0-12.0-0.27","2d_cat_multi_stim_exp1","2022-4-25","10:51:20","25","75","3","9","10","40","30","120","54","20","[""Asian""]","No","Female","1810958","null","null","","","","fixation","","","","","","","","","","","","","","","","","","","","","","","","","",""
"","","","","","canvas-keyboard-response","148","226128","0.0-12.0-1.27","2d_cat_multi_stim_exp1","2022-4-25","10:51:20","25","75","3","9","10","40","30","120","54","20","[""Asian""]","No","Female","1810958","null","null","","","","clear_screen","","","","","","","","","","","","","","","","","","","","","","","","","",""
"","","","","","canvas-keyboard-response","149","227056","0.0-12.0-2.27","2d_cat_multi_stim_exp1","2022-4-25","10:51:20","25","75","3","9","10","40","30","120","54","20","[""Asian""]","No","Female","1810958","917","u","learn","","","learn_trial","22.1081","77.3943","in","1","1","","","","","","","","","","","","","","","","","","","","",""
"","","","","","canvas-keyboard-response","150","227568","0.0-12.0-3.27","2d_cat_multi_stim_exp1","2022-4-25","10:51:20","25","75","3","9","10","40","30","120","54","20","[""Asian""]","No","Female","1810958","null","null","learn_feedback","","","learn_feedback","22.1081","77.3943","in","","","","","","","","","","","","","","","","","","","","","","",""
"","","","","","canvas-keyboard-response","151","227632","0.0-12.0-4.27","2d_cat_multi_stim_exp1","2022-4-25","10:51:20","25","75","3","9","10","40","30","120","54","20","[""Asian""]","No","Female","1810958","null","null","","","","clear_screen","","","","","","","","","","","","","","","","","","","","","","","","","",""
"","","","","","canvas-keyboard-response","152","228139","0.0-12.0-0.28","2d_cat_multi_stim_exp1","2022-4-25","10:51:20","25","75","3","9","10","40","30","120","54","20","[""Asian""]","No","Female","1810958","null","null","","","","fixation","","","","","","","","","","","","","","","","","","","","","","","","","",""
"","","","","","canvas-keyboard-response","153","228650","0.0-12.0-1.28","2d_cat_multi_stim_exp1","2022-4-25","10:51:20","25","75","3","9","10","40","30","120","54","20","[""Asian""]","No","Female","1810958","null","null","","","","clear_screen","","","","","","","","","","","","","","","","","","","","","","","","","",""
"","","","","","canvas-keyboard-response","154","229408","0.0-12.0-2.28","2d_cat_multi_stim_exp1","2022-4-25","10:51:20","25","75","3","9","10","40","30","120","54","20","[""Asian""]","No","Female","1810958","749","u","learn","","","learn_trial","25","75","in","1","1","","","","","","","","","","","","","","","","","","","","",""
"","","","","","canvas-keyboard-response","155","229923","0.0-12.0-3.28","2d_cat_multi_stim_exp1","2022-4-25","10:51:20","25","75","3","9","10","40","30","120","54","20","[""Asian""]","No","Female","1810958","null","null","learn_feedback","","","learn_feedback","25","75","in","","","","","","","","","","","","","","","","","","","","","","",""
"","","","","","canvas-keyboard-response","156","229983","0.0-12.0-4.28","2d_cat_multi_stim_exp1","2022-4-25","10:51:20","25","75","3","9","10","40","30","120","54","20","[""Asian""]","No","Female","1810958","null","null","","","","clear_screen","","","","","","","","","","","","","","","","","","","","","","","","","",""
"","","","","","canvas-keyboard-response","157","230496","0.0-12.0-0.29","2d_cat_multi_stim_exp1","2022-4-25","10:51:20","25","75","3","9","10","40","30","120","54","20","[""Asian""]","No","Female","1810958","null","null","","","","fixation","","","","","","","","","","","","","","","","","","","","","","","","","",""
"","","","","","canvas-keyboard-response","158","231009","0.0-12.0-1.29","2d_cat_multi_stim_exp1","2022-4-25","10:51:20","25","75","3","9","10","40","30","120","54","20","[""Asian""]","No","Female","1810958","null","null","","","","clear_screen","","","","","","","","","","","","","","","","","","","","","","","","","",""
"","","","","","canvas-keyboard-response","159","232417","0.0-12.0-2.29","2d_cat_multi_stim_exp1","2022-4-25","10:51:20","25","75","3","9","10","40","30","120","54","20","[""Asian""]","No","Female","1810958","1394","i","learn","","","learn_trial","33.3333","80","out","0","1","","","","","","","","","","","","","","","","","","","","",""
"","","","","","canvas-keyboard-response","160","232927","0.0-12.0-3.29","2d_cat_multi_stim_exp1","2022-4-25","10:51:20","25","75","3","9","10","40","30","120","54","20","[""Asian""]","No","Female","1810958","null","null","learn_feedback","","","learn_feedback","33.3333","80","out","","","","","","","","","","","","","","","","","","","","","","",""
"","","","","","canvas-keyboard-response","161","232988","0.0-12.0-4.29","2d_cat_multi_stim_exp1","2022-4-25","10:51:20","25","75","3","9","10","40","30","120","54","20","[""Asian""]","No","Female","1810958","null","null","","","","clear_screen","","","","","","","","","","","","","","","","","","","","","","","","","",""
"","","","","","canvas-keyboard-response","162","233501","0.0-12.0-0.30","2d_cat_multi_stim_exp1","2022-4-25","10:51:20","25","75","3","9","10","40","30","120","54","20","[""Asian""]","No","Female","1810958","null","null","","","","fixation","","","","","","","","","","","","","","","","","","","","","","","","","",""
"","","","","","canvas-keyboard-response","163","234015","0.0-12.0-1.30","2d_cat_multi_stim_exp1","2022-4-25","10:51:20","25","75","3","9","10","40","30","120","54","20","[""Asian""]","No","Female","1810958","null","null","","","","clear_screen","","","","","","","","","","","","","","","","","","","","","","","","","",""
"","","","","","canvas-keyboard-response","164","234809","0.0-12.0-2.30","2d_cat_multi_stim_exp1","2022-4-25","10:51:20","25","75","3","9","10","40","30","120","54","20","[""Asian""]","No","Female","1810958","784","i","learn","","","learn_trial","30","50","out","0","1","","","","","","","","","","","","","","","","","","","","",""
"","","","","","canvas-keyboard-response","165","235320","0.0-12.0-3.30","2d_cat_multi_stim_exp1","2022-4-25","10:51:20","25","75","3","9","10","40","30","120","54","20","[""Asian""]","No","Female","1810958","null","null","learn_feedback","","","learn_feedback","30","50","out","","","","","","","","","","","","","","","","","","","","","","",""
"","","","","","canvas-keyboard-response","166","235381","0.0-12.0-4.30","2d_cat_multi_stim_exp1","2022-4-25","10:51:20","25","75","3","9","10","40","30","120","54","20","[""Asian""]","No","Female","1810958","null","null","","","","clear_screen","","","","","","","","","","","","","","","","","","","","","","","","","",""
"","","","","","canvas-keyboard-response","167","235888","0.0-12.0-0.31","2d_cat_multi_stim_exp1","2022-4-25","10:51:20","25","75","3","9","10","40","30","120","54","20","[""Asian""]","No","Female","1810958","null","null","","","","fixation","","","","","","","","","","","","","","","","","","","","","","","","","",""
"","","","","","canvas-keyboard-response","168","236401","0.0-12.0-1.31","2d_cat_multi_stim_exp1","2022-4-25","10:51:20","25","75","3","9","10","40","30","120","54","20","[""Asian""]","No","Female","1810958","null","null","","","","clear_screen","","","","","","","","","","","","","","","","","","","","","","","","","",""
"","","","","","canvas-keyboard-response","169","237457","0.0-12.0-2.31","2d_cat_multi_stim_exp1","2022-4-25","10:51:20","25","75","3","9","10","40","30","120","54","20","[""Asian""]","No","Female","1810958","1046","i","learn","","","learn_trial","23.3333","80","out","0","1","","","","","","","","","","","","","","","","","","","","",""
"","","","","","canvas-keyboard-response","170","237966","0.0-12.0-3.31","2d_cat_multi_stim_exp1","2022-4-25","10:51:20","25","75","3","9","10","40","30","120","54","20","[""Asian""]","No","Female","1810958","null","null","learn_feedback","","","learn_feedback","23.3333","80","out","","","","","","","","","","","","","","","","","","","","","","",""
"","","","","","canvas-keyboard-response","171","238027","0.0-12.0-4.31","2d_cat_multi_stim_exp1","2022-4-25","10:51:20","25","75","3","9","10","40","30","120","54","20","[""Asian""]","No","Female","1810958","null","null","","","","clear_screen","","","","","","","","","","","","","","","","","","","","","","","","","",""
"","","","","","canvas-keyboard-response","172","238536","0.0-12.0-0.32","2d_cat_multi_stim_exp1","2022-4-25","10:51:20","25","75","3","9","10","40","30","120","54","20","[""Asian""]","No","Female","1810958","null","null","","","","fixation","","","","","","","","","","","","","","","","","","","","","","","","","",""
"","","","","","canvas-keyboard-response","173","239046","0.0-12.0-1.32","2d_cat_multi_stim_exp1","2022-4-25","10:51:20","25","75","3","9","10","40","30","120","54","20","[""Asian""]","No","Female","1810958","null","null","","","","clear_screen","","","","","","","","","","","","","","","","","","","","","","","","","",""
"","","","","","canvas-keyboard-response","174","239785","0.0-12.0-2.32","2d_cat_multi_stim_exp1","2022-4-25","10:51:20","25","75","3","9","10","40","30","120","54","20","[""Asian""]","No","Female","1810958","729","i","learn","","","learn_trial","13.3333","40","out","0","1","","","","","","","","","","","","","","","","","","","","",""
"","","","","","canvas-keyboard-response","175","240296","0.0-12.0-3.32","2d_cat_multi_stim_exp1","2022-4-25","10:51:20","25","75","3","9","10","40","30","120","54","20","[""Asian""]","No","Female","1810958","null","null","learn_feedback","","","learn_feedback","13.3333","40","out","","","","","","","","","","","","","","","","","","","","","","",""
"","","","","","canvas-keyboard-response","176","240356","0.0-12.0-4.32","2d_cat_multi_stim_exp1","2022-4-25","10:51:20","25","75","3","9","10","40","30","120","54","20","[""Asian""]","No","Female","1810958","null","null","","","","clear_screen","","","","","","","","","","","","","","","","","","","","","","","","","",""
"","","","","","canvas-keyboard-response","177","240864","0.0-12.0-0.33","2d_cat_multi_stim_exp1","2022-4-25","10:51:20","25","75","3","9","10","40","30","120","54","20","[""Asian""]","No","Female","1810958","null","null","","","","fixation","","","","","","","","","","","","","","","","","","","","","","","","","",""
"","","","","","canvas-keyboard-response","178","241375","0.0-12.0-1.33","2d_cat_multi_stim_exp1","2022-4-25","10:51:20","25","75","3","9","10","40","30","120","54","20","[""Asian""]","No","Female","1810958","null","null","","","","clear_screen","","","","","","","","","","","","","","","","","","","","","","","","","",""
"","","","","","canvas-keyboard-response","179","242424","0.0-12.0-2.33","2d_cat_multi_stim_exp1","2022-4-25","10:51:20","25","75","3","9","10","40","30","120","54","20","[""Asian""]","No","Female","1810958","1040","i","learn","","","learn_trial","33.3333","90","out","0","1","","","","","","","","","","","","","","","","","","","","",""
"","","","","","canvas-keyboard-response","180","242935","0.0-12.0-3.33","2d_cat_multi_stim_exp1","2022-4-25","10:51:20","25","75","3","9","10","40","30","120","54","20","[""Asian""]","No","Female","1810958","null","null","learn_feedback","","","learn_feedback","33.3333","90","out","","","","","","","","","","","","","","","","","","","","","","",""
"","","","","","canvas-keyboard-response","181","242994","0.0-12.0-4.33","2d_cat_multi_stim_exp1","2022-4-25","10:51:20","25","75","3","9","10","40","30","120","54","20","[""Asian""]","No","Female","1810958","null","null","","","","clear_screen","","","","","","","","","","","","","","","","","","","","","","","","","",""
"","","","","","canvas-keyboard-response","182","243502","0.0-12.0-0.34","2d_cat_multi_stim_exp1","2022-4-25","10:51:20","25","75","3","9","10","40","30","120","54","20","[""Asian""]","No","Female","1810958","null","null","","","","fixation","","","","","","","","","","","","","","","","","","","","","","","","","",""
"","","","","","canvas-keyboard-response","183","244013","0.0-12.0-1.34","2d_cat_multi_stim_exp1","2022-4-25","10:51:20","25","75","3","9","10","40","30","120","54","20","[""Asian""]","No","Female","1810958","null","null","","","","clear_screen","","","","","","","","","","","","","","","","","","","","","","","","","",""
"","","","","","canvas-keyboard-response","184","244777","0.0-12.0-2.34","2d_cat_multi_stim_exp1","2022-4-25","10:51:20","25","75","3","9","10","40","30","120","54","20","[""Asian""]","No","Female","1810958","757","u","learn","","","learn_trial","25","75","in","1","1","","","","","","","","","","","","","","","","","","","","",""
"","","","","","canvas-keyboard-response","185","245287","0.0-12.0-3.34","2d_cat_multi_stim_exp1","2022-4-25","10:51:20","25","75","3","9","10","40","30","120","54","20","[""Asian""]","No","Female","1810958","null","null","learn_feedback","","","learn_feedback","25","75","in","","","","","","","","","","","","","","","","","","","","","","",""
"","","","","","canvas-keyboard-response","186","245348","0.0-12.0-4.34","2d_cat_multi_stim_exp1","2022-4-25","10:51:20","25","75","3","9","10","40","30","120","54","20","[""Asian""]","No","Female","1810958","null","null","","","","clear_screen","","","","","","","","","","","","","","","","","","","","","","","","","",""
"","","","","","canvas-keyboard-response","187","245857","0.0-12.0-0.35","2d_cat_multi_stim_exp1","2022-4-25","10:51:20","25","75","3","9","10","40","30","120","54","20","[""Asian""]","No","Female","1810958","null","null","","","","fixation","","","","","","","","","","","","","","","","","","","","","","","","","",""
"","","","","","canvas-keyboard-response","188","246369","0.0-12.0-1.35","2d_cat_multi_stim_exp1","2022-4-25","10:51:20","25","75","3","9","10","40","30","120","54","20","[""Asian""]","No","Female","1810958","null","null","","","","clear_screen","","","","","","","","","","","","","","","","","","","","","","","","","",""
"","","","","","canvas-keyboard-response","189","247072","0.0-12.0-2.35","2d_cat_multi_stim_exp1","2022-4-25","10:51:20","25","75","3","9","10","40","30","120","54","20","[""Asian""]","No","Female","1810958","692","i","learn","","","learn_trial","20","50","out","0","1","","","","","","","","","","","","","","","","","","","","",""
"","","","","","canvas-keyboard-response","190","247581","0.0-12.0-3.35","2d_cat_multi_stim_exp1","2022-4-25","10:51:20","25","75","3","9","10","40","30","120","54","20","[""Asian""]","No","Female","1810958","null","null","learn_feedback","","","learn_feedback","20","50","out","","","","","","","","","","","","","","","","","","","","","","",""
"","","","","","canvas-keyboard-response","191","247643","0.0-12.0-4.35","2d_cat_multi_stim_exp1","2022-4-25","10:51:20","25","75","3","9","10","40","30","120","54","20","[""Asian""]","No","Female","1810958","null","null","","","","clear_screen","","","","","","","","","","","","","","","","","","","","","","","","","",""
"","","","","","canvas-keyboard-response","192","248152","0.0-12.0-0.36","2d_cat_multi_stim_exp1","2022-4-25","10:51:20","25","75","3","9","10","40","30","120","54","20","[""Asian""]","No","Female","1810958","null","null","","","","fixation","","","","","","","","","","","","","","","","","","","","","","","","","",""
"","","","","","canvas-keyboard-response","193","248665","0.0-12.0-1.36","2d_cat_multi_stim_exp1","2022-4-25","10:51:20","25","75","3","9","10","40","30","120","54","20","[""Asian""]","No","Female","1810958","null","null","","","","clear_screen","","","","","","","","","","","","","","","","","","","","","","","","","",""
"","","","","","canvas-keyboard-response","194","249409","0.0-12.0-2.36","2d_cat_multi_stim_exp1","2022-4-25","10:51:20","25","75","3","9","10","40","30","120","54","20","[""Asian""]","No","Female","1810958","736","i","learn","","","learn_trial","13.3333","110","out","0","1","","","","","","","","","","","","","","","","","","","","",""
"","","","","","canvas-keyboard-response","195","249915","0.0-12.0-3.36","2d_cat_multi_stim_exp1","2022-4-25","10:51:20","25","75","3","9","10","40","30","120","54","20","[""Asian""]","No","Female","1810958","null","null","learn_feedback","","","learn_feedback","13.3333","110","out","","","","","","","","","","","","","","","","","","","","","","",""
"","","","","","canvas-keyboard-response","196","249979","0.0-12.0-4.36","2d_cat_multi_stim_exp1","2022-4-25","10:51:20","25","75","3","9","10","40","30","120","54","20","[""Asian""]","No","Female","1810958","null","null","","","","clear_screen","","","","","","","","","","","","","","","","","","","","","","","","","",""
"","","","","","canvas-keyboard-response","197","250486","0.0-12.0-0.37","2d_cat_multi_stim_exp1","2022-4-25","10:51:20","25","75","3","9","10","40","30","120","54","20","[""Asian""]","No","Female","1810958","null","null","","","","fixation","","","","","","","","","","","","","","","","","","","","","","","","","",""
"","","","","","canvas-keyboard-response","198","250997","0.0-12.0-1.37","2d_cat_multi_stim_exp1","2022-4-25","10:51:20","25","75","3","9","10","40","30","120","54","20","[""Asian""]","No","Female","1810958","null","null","","","","clear_screen","","","","","","","","","","","","","","","","","","","","","","","","","",""
"","","","","","canvas-keyboard-response","199","251825","0.0-12.0-2.37","2d_cat_multi_stim_exp1","2022-4-25","10:51:20","25","75","3","9","10","40","30","120","54","20","[""Asian""]","No","Female","1810958","819","i","learn","","","learn_trial","33.3333","50","out","0","1","","","","","","","","","","","","","","","","","","","","",""
"","","","","","canvas-keyboard-response","200","252335","0.0-12.0-3.37","2d_cat_multi_stim_exp1","2022-4-25","10:51:20","25","75","3","9","10","40","30","120","54","20","[""Asian""]","No","Female","1810958","null","null","learn_feedback","","","learn_feedback","33.3333","50","out","","","","","","","","","","","","","","","","","","","","","","",""
"","","","","","canvas-keyboard-response","201","252399","0.0-12.0-4.37","2d_cat_multi_stim_exp1","2022-4-25","10:51:20","25","75","3","9","10","40","30","120","54","20","[""Asian""]","No","Female","1810958","null","null","","","","clear_screen","","","","","","","","","","","","","","","","","","","","","","","","","",""
"","","","","","canvas-keyboard-response","202","252907","0.0-12.0-0.38","2d_cat_multi_stim_exp1","2022-4-25","10:51:20","25","75","3","9","10","40","30","120","54","20","[""Asian""]","No","Female","1810958","null","null","","","","fixation","","","","","","","","","","","","","","","","","","","","","","","","","",""
"","","","","","canvas-keyboard-response","203","253420","0.0-12.0-1.38","2d_cat_multi_stim_exp1","2022-4-25","10:51:20","25","75","3","9","10","40","30","120","54","20","[""Asian""]","No","Female","1810958","null","null","","","","clear_screen","","","","","","","","","","","","","","","","","","","","","","","","","",""
"","","","","","canvas-keyboard-response","204","254305","0.0-12.0-2.38","2d_cat_multi_stim_exp1","2022-4-25","10:51:20","25","75","3","9","10","40","30","120","54","20","[""Asian""]","No","Female","1810958","877","u","learn","","","learn_trial","22.5729","69.7099","in","1","1","","","","","","","","","","","","","","","","","","","","",""
"","","","","","canvas-keyboard-response","205","254816","0.0-12.0-3.38","2d_cat_multi_stim_exp1","2022-4-25","10:51:20","25","75","3","9","10","40","30","120","54","20","[""Asian""]","No","Female","1810958","null","null","learn_feedback","","","learn_feedback","22.5729","69.7099","in","","","","","","","","","","","","","","","","","","","","","","",""
"","","","","","canvas-keyboard-response","206","254875","0.0-12.0-4.38","2d_cat_multi_stim_exp1","2022-4-25","10:51:20","25","75","3","9","10","40","30","120","54","20","[""Asian""]","No","Female","1810958","null","null","","","","clear_screen","","","","","","","","","","","","","","","","","","","","","","","","","",""
"","","","","","canvas-keyboard-response","207","255384","0.0-12.0-0.39","2d_cat_multi_stim_exp1","2022-4-25","10:51:20","25","75","3","9","10","40","30","120","54","20","[""Asian""]","No","Female","1810958","null","null","","","","fixation","","","","","","","","","","","","","","","","","","","","","","","","","",""
"","","","","","canvas-keyboard-response","208","255893","0.0-12.0-1.39","2d_cat_multi_stim_exp1","2022-4-25","10:51:20","25","75","3","9","10","40","30","120","54","20","[""Asian""]","No","Female","1810958","null","null","","","","clear_screen","","","","","","","","","","","","","","","","","","","","","","","","","",""
"","","","","","canvas-keyboard-response","209","256665","0.0-12.0-2.39","2d_cat_multi_stim_exp1","2022-4-25","10:51:20","25","75","3","9","10","40","30","120","54","20","[""Asian""]","No","Female","1810958","760","u","learn","","","learn_trial","25","75","in","1","1","","","","","","","","","","","","","","","","","","","","",""
"","","","","","canvas-keyboard-response","210","257172","0.0-12.0-3.39","2d_cat_multi_stim_exp1","2022-4-25","10:51:20","25","75","3","9","10","40","30","120","54","20","[""Asian""]","No","Female","1810958","null","null","learn_feedback","","","learn_feedback","25","75","in","","","","","","","","","","","","","","","","","","","","","","",""
"","","","","","canvas-keyboard-response","211","257232","0.0-12.0-4.39","2d_cat_multi_stim_exp1","2022-4-25","10:51:20","25","75","3","9","10","40","30","120","54","20","[""Asian""]","No","Female","1810958","null","null","","","","clear_screen","","","","","","","","","","","","","","","","","","","","","","","","","",""
"","","","","","canvas-keyboard-response","212","257743","0.0-12.0-0.40","2d_cat_multi_stim_exp1","2022-4-25","10:51:20","25","75","3","9","10","40","30","120","54","20","[""Asian""]","No","Female","1810958","null","null","","","","fixation","","","","","","","","","","","","","","","","","","","","","","","","","",""
"","","","","","canvas-keyboard-response","213","258255","0.0-12.0-1.40","2d_cat_multi_stim_exp1","2022-4-25","10:51:20","25","75","3","9","10","40","30","120","54","20","[""Asian""]","No","Female","1810958","null","null","","","","clear_screen","","","","","","","","","","","","","","","","","","","","","","","","","",""
"","","","","","canvas-keyboard-response","214","258849","0.0-12.0-2.40","2d_cat_multi_stim_exp1","2022-4-25","10:51:20","25","75","3","9","10","40","30","120","54","20","[""Asian""]","No","Female","1810958","582","i","learn","","","learn_trial","13.3333","90","out","0","1","","","","","","","","","","","","","","","","","","","","",""
"","","","","","canvas-keyboard-response","215","259362","0.0-12.0-3.40","2d_cat_multi_stim_exp1","2022-4-25","10:51:20","25","75","3","9","10","40","30","120","54","20","[""Asian""]","No","Female","1810958","null","null","learn_feedback","","","learn_feedback","13.3333","90","out","","","","","","","","","","","","","","","","","","","","","","",""
"","","","","","canvas-keyboard-response","216","259422","0.0-12.0-4.40","2d_cat_multi_stim_exp1","2022-4-25","10:51:20","25","75","3","9","10","40","30","120","54","20","[""Asian""]","No","Female","1810958","null","null","","","","clear_screen","","","","","","","","","","","","","","","","","","","","","","","","","",""
"","","","","","canvas-keyboard-response","217","259933","0.0-12.0-0.41","2d_cat_multi_stim_exp1","2022-4-25","10:51:20","25","75","3","9","10","40","30","120","54","20","[""Asian""]","No","Female","1810958","null","null","","","","fixation","","","","","","","","","","","","","","","","","","","","","","","","","",""
"","","","","","canvas-keyboard-response","218","260443","0.0-12.0-1.41","2d_cat_multi_stim_exp1","2022-4-25","10:51:20","25","75","3","9","10","40","30","120","54","20","[""Asian""]","No","Female","1810958","null","null","","","","clear_screen","","","","","","","","","","","","","","","","","","","","","","","","","",""
"","","","","","canvas-keyboard-response","219","261162","0.0-12.0-2.41","2d_cat_multi_stim_exp1","2022-4-25","10:51:20","25","75","3","9","10","40","30","120","54","20","[""Asian""]","No","Female","1810958","707","i","learn","","","learn_trial","23.3333","40","out","0","1","","","","","","","","","","","","","","","","","","","","",""
"","","","","","canvas-keyboard-response","220","261675","0.0-12.0-3.41","2d_cat_multi_stim_exp1","2022-4-25","10:51:20","25","75","3","9","10","40","30","120","54","20","[""Asian""]","No","Female","1810958","null","null","learn_feedback","","","learn_feedback","23.3333","40","out","","","","","","","","","","","","","","","","","","","","","","",""
"","","","","","canvas-keyboard-response","221","261740","0.0-12.0-4.41","2d_cat_multi_stim_exp1","2022-4-25","10:51:20","25","75","3","9","10","40","30","120","54","20","[""Asian""]","No","Female","1810958","null","null","","","","clear_screen","","","","","","","","","","","","","","","","","","","","","","","","","",""
"","","","","","canvas-keyboard-response","222","262249","0.0-12.0-0.42","2d_cat_multi_stim_exp1","2022-4-25","10:51:20","25","75","3","9","10","40","30","120","54","20","[""Asian""]","No","Female","1810958","null","null","","","","fixation","","","","","","","","","","","","","","","","","","","","","","","","","",""
"","","","","","canvas-keyboard-response","223","262761","0.0-12.0-1.42","2d_cat_multi_stim_exp1","2022-4-25","10:51:20","25","75","3","9","10","40","30","120","54","20","[""Asian""]","No","Female","1810958","null","null","","","","clear_screen","","","","","","","","","","","","","","","","","","","","","","","","","",""
"","","","","","canvas-keyboard-response","224","263625","0.0-12.0-2.42","2d_cat_multi_stim_exp1","2022-4-25","10:51:20","25","75","3","9","10","40","30","120","54","20","[""Asian""]","No","Female","1810958","856","i","learn","","","learn_trial","29.2426","87.7279","in","0","0","","","","","","","","","","","","","","","","","","","","",""
"","","","","","canvas-keyboard-response","225","264637","0.0-12.0-3.42","2d_cat_multi_stim_exp1","2022-4-25","10:51:20","25","75","3","9","10","40","30","120","54","20","[""Asian""]","No","Female","1810958","null","null","learn_feedback","","","learn_feedback","29.2426","87.7279","in","","","","","","","","","","","","","","","","","","","","","","",""
"","","","","","canvas-keyboard-response","226","264697","0.0-12.0-4.42","2d_cat_multi_stim_exp1","2022-4-25","10:51:20","25","75","3","9","10","40","30","120","54","20","[""Asian""]","No","Female","1810958","null","null","","","","clear_screen","","","","","","","","","","","","","","","","","","","","","","","","","",""
"","","","","","canvas-keyboard-response","227","265206","0.0-12.0-0.43","2d_cat_multi_stim_exp1","2022-4-25","10:51:20","25","75","3","9","10","40","30","120","54","20","[""Asian""]","No","Female","1810958","null","null","","","","fixation","","","","","","","","","","","","","","","","","","","","","","","","","",""
"","","","","","canvas-keyboard-response","228","265716","0.0-12.0-1.43","2d_cat_multi_stim_exp1","2022-4-25","10:51:20","25","75","3","9","10","40","30","120","54","20","[""Asian""]","No","Female","1810958","null","null","","","","clear_screen","","","","","","","","","","","","","","","","","","","","","","","","","",""
"","","","","","canvas-keyboard-response","229","266434","0.0-12.0-2.43","2d_cat_multi_stim_exp1","2022-4-25","10:51:20","25","75","3","9","10","40","30","120","54","20","[""Asian""]","No","Female","1810958","707","i","learn","","","learn_trial","40","110","out","0","1","","","","","","","","","","","","","","","","","","","","",""
"","","","","","canvas-keyboard-response","230","266947","0.0-12.0-3.43","2d_cat_multi_stim_exp1","2022-4-25","10:51:20","25","75","3","9","10","40","30","120","54","20","[""Asian""]","No","Female","1810958","null","null","learn_feedback","","","learn_feedback","40","110","out","","","","","","","","","","","","","","","","","","","","","","",""
"","","","","","canvas-keyboard-response","231","267008","0.0-12.0-4.43","2d_cat_multi_stim_exp1","2022-4-25","10:51:20","25","75","3","9","10","40","30","120","54","20","[""Asian""]","No","Female","1810958","null","null","","","","clear_screen","","","","","","","","","","","","","","","","","","","","","","","","","",""
"","","","","","canvas-keyboard-response","232","267516","0.0-12.0-0.44","2d_cat_multi_stim_exp1","2022-4-25","10:51:20","25","75","3","9","10","40","30","120","54","20","[""Asian""]","No","Female","1810958","null","null","","","","fixation","","","","","","","","","","","","","","","","","","","","","","","","","",""
"","","","","","canvas-keyboard-response","233","268026","0.0-12.0-1.44","2d_cat_multi_stim_exp1","2022-4-25","10:51:20","25","75","3","9","10","40","30","120","54","20","[""Asian""]","No","Female","1810958","null","null","","","","clear_screen","","","","","","","","","","","","","","","","","","","","","","","","","",""
"","","","","","canvas-keyboard-response","234","269520","0.0-12.0-2.44","2d_cat_multi_stim_exp1","2022-4-25","10:51:20","25","75","3","9","10","40","30","120","54","20","[""Asian""]","No","Female","1810958","1484","i","learn","","","learn_trial","16.6667","70","out","0","1","","","","","","","","","","","","","","","","","","","","",""
"","","","","","canvas-keyboard-response","235","270028","0.0-12.0-3.44","2d_cat_multi_stim_exp1","2022-4-25","10:51:20","25","75","3","9","10","40","30","120","54","20","[""Asian""]","No","Female","1810958","null","null","learn_feedback","","","learn_feedback","16.6667","70","out","","","","","","","","","","","","","","","","","","","","","","",""
"","","","","","canvas-keyboard-response","236","270086","0.0-12.0-4.44","2d_cat_multi_stim_exp1","2022-4-25","10:51:20","25","75","3","9","10","40","30","120","54","20","[""Asian""]","No","Female","1810958","null","null","","","","clear_screen","","","","","","","","","","","","","","","","","","","","","","","","","",""
"","","","","","canvas-keyboard-response","237","270596","0.0-12.0-0.45","2d_cat_multi_stim_exp1","2022-4-25","10:51:20","25","75","3","9","10","40","30","120","54","20","[""Asian""]","No","Female","1810958","null","null","","","","fixation","","","","","","","","","","","","","","","","","","","","","","","","","",""
"","","","","","canvas-keyboard-response","238","271107","0.0-12.0-1.45","2d_cat_multi_stim_exp1","2022-4-25","10:51:20","25","75","3","9","10","40","30","120","54","20","[""Asian""]","No","Female","1810958","null","null","","","","clear_screen","","","","","","","","","","","","","","","","","","","","","","","","","",""
"","","","","","canvas-keyboard-response","239","271777","0.0-12.0-2.45","2d_cat_multi_stim_exp1","2022-4-25","10:51:20","25","75","3","9","10","40","30","120","54","20","[""Asian""]","No","Female","1810958","661","i","learn","","","learn_trial","16.6667","50","out","0","1","","","","","","","","","","","","","","","","","","","","",""
"","","","","","canvas-keyboard-response","240","272287","0.0-12.0-3.45","2d_cat_multi_stim_exp1","2022-4-25","10:51:20","25","75","3","9","10","40","30","120","54","20","[""Asian""]","No","Female","1810958","null","null","learn_feedback","","","learn_feedback","16.6667","50","out","","","","","","","","","","","","","","","","","","","","","","",""
"","","","","","canvas-keyboard-response","241","272347","0.0-12.0-4.45","2d_cat_multi_stim_exp1","2022-4-25","10:51:20","25","75","3","9","10","40","30","120","54","20","[""Asian""]","No","Female","1810958","null","null","","","","clear_screen","","","","","","","","","","","","","","","","","","","","","","","","","",""
"","","","","","canvas-keyboard-response","242","272856","0.0-12.0-0.46","2d_cat_multi_stim_exp1","2022-4-25","10:51:20","25","75","3","9","10","40","30","120","54","20","[""Asian""]","No","Female","1810958","null","null","","","","fixation","","","","","","","","","","","","","","","","","","","","","","","","","",""
"","","","","","canvas-keyboard-response","243","273370","0.0-12.0-1.46","2d_cat_multi_stim_exp1","2022-4-25","10:51:20","25","75","3","9","10","40","30","120","54","20","[""Asian""]","No","Female","1810958","null","null","","","","clear_screen","","","","","","","","","","","","","","","","","","","","","","","","","",""
"","","","","","canvas-keyboard-response","244","274784","0.0-12.0-2.46","2d_cat_multi_stim_exp1","2022-4-25","10:51:20","25","75","3","9","10","40","30","120","54","20","[""Asian""]","No","Female","1810958","1406","u","learn","","","learn_trial","25","75","in","1","1","","","","","","","","","","","","","","","","","","","","",""
"","","","","","canvas-keyboard-response","245","275296","0.0-12.0-3.46","2d_cat_multi_stim_exp1","2022-4-25","10:51:20","25","75","3","9","10","40","30","120","54","20","[""Asian""]","No","Female","1810958","null","null","learn_feedback","","","learn_feedback","25","75","in","","","","","","","","","","","","","","","","","","","","","","",""
"","","","","","canvas-keyboard-response","246","275354","0.0-12.0-4.46","2d_cat_multi_stim_exp1","2022-4-25","10:51:20","25","75","3","9","10","40","30","120","54","20","[""Asian""]","No","Female","1810958","null","null","","","","clear_screen","","","","","","","","","","","","","","","","","","","","","","","","","",""
"","","","","","canvas-keyboard-response","247","275864","0.0-12.0-0.47","2d_cat_multi_stim_exp1","2022-4-25","10:51:20","25","75","3","9","10","40","30","120","54","20","[""Asian""]","No","Female","1810958","null","null","","","","fixation","","","","","","","","","","","","","","","","","","","","","","","","","",""
"","","","","","canvas-keyboard-response","248","276376","0.0-12.0-1.47","2d_cat_multi_stim_exp1","2022-4-25","10:51:20","25","75","3","9","10","40","30","120","54","20","[""Asian""]","No","Female","1810958","null","null","","","","clear_screen","","","","","","","","","","","","","","","","","","","","","","","","","",""
"","","","","","canvas-keyboard-response","249","277040","0.0-12.0-2.47","2d_cat_multi_stim_exp1","2022-4-25","10:51:20","25","75","3","9","10","40","30","120","54","20","[""Asian""]","No","Female","1810958","654","i","learn","","","learn_trial","10","110","out","0","1","","","","","","","","","","","","","","","","","","","","",""
"","","","","","canvas-keyboard-response","250","277553","0.0-12.0-3.47","2d_cat_multi_stim_exp1","2022-4-25","10:51:20","25","75","3","9","10","40","30","120","54","20","[""Asian""]","No","Female","1810958","null","null","learn_feedback","","","learn_feedback","10","110","out","","","","","","","","","","","","","","","","","","","","","","",""
"","","","","","canvas-keyboard-response","251","277611","0.0-12.0-4.47","2d_cat_multi_stim_exp1","2022-4-25","10:51:20","25","75","3","9","10","40","30","120","54","20","[""Asian""]","No","Female","1810958","null","null","","","","clear_screen","","","","","","","","","","","","","","","","","","","","","","","","","",""
"","","","","","canvas-keyboard-response","252","278118","0.0-12.0-0.48","2d_cat_multi_stim_exp1","2022-4-25","10:51:20","25","75","3","9","10","40","30","120","54","20","[""Asian""]","No","Female","1810958","null","null","","","","fixation","","","","","","","","","","","","","","","","","","","","","","","","","",""
"","","","","","canvas-keyboard-response","253","278632","0.0-12.0-1.48","2d_cat_multi_stim_exp1","2022-4-25","10:51:20","25","75","3","9","10","40","30","120","54","20","[""Asian""]","No","Female","1810958","null","null","","","","clear_screen","","","","","","","","","","","","","","","","","","","","","","","","","",""
"","","","","","canvas-keyboard-response","254","279401","0.0-12.0-2.48","2d_cat_multi_stim_exp1","2022-4-25","10:51:20","25","75","3","9","10","40","30","120","54","20","[""Asian""]","No","Female","1810958","763","i","learn","","","learn_trial","25","75","in","0","0","","","","","","","","","","","","","","","","","","","","",""
"","","","","","canvas-keyboard-response","255","280412","0.0-12.0-3.48","2d_cat_multi_stim_exp1","2022-4-25","10:51:20","25","75","3","9","10","40","30","120","54","20","[""Asian""]","No","Female","1810958","null","null","learn_feedback","","","learn_feedback","25","75","in","","","","","","","","","","","","","","","","","","","","","","",""
"","","","","","canvas-keyboard-response","256","280471","0.0-12.0-4.48","2d_cat_multi_stim_exp1","2022-4-25","10:51:20","25","75","3","9","10","40","30","120","54","20","[""Asian""]","No","Female","1810958","null","null","","","","clear_screen","","","","","","","","","","","","","","","","","","","","","","","","","",""
"","","","","","canvas-keyboard-response","257","280980","0.0-12.0-0.49","2d_cat_multi_stim_exp1","2022-4-25","10:51:20","25","75","3","9","10","40","30","120","54","20","[""Asian""]","No","Female","1810958","null","null","","","","fixation","","","","","","","","","","","","","","","","","","","","","","","","","",""
"","","","","","canvas-keyboard-response","258","281489","0.0-12.0-1.49","2d_cat_multi_stim_exp1","2022-4-25","10:51:20","25","75","3","9","10","40","30","120","54","20","[""Asian""]","No","Female","1810958","null","null","","","","clear_screen","","","","","","","","","","","","","","","","","","","","","","","","","",""
"","","","","","canvas-keyboard-response","259","282312","0.0-12.0-2.49","2d_cat_multi_stim_exp1","2022-4-25","10:51:20","25","75","3","9","10","40","30","120","54","20","[""Asian""]","No","Female","1810958","814","i","learn","","","learn_trial","23.3333","70","out","0","1","","","","","","","","","","","","","","","","","","","","",""
"","","","","","canvas-keyboard-response","260","282823","0.0-12.0-3.49","2d_cat_multi_stim_exp1","2022-4-25","10:51:20","25","75","3","9","10","40","30","120","54","20","[""Asian""]","No","Female","1810958","null","null","learn_feedback","","","learn_feedback","23.3333","70","out","","","","","","","","","","","","","","","","","","","","","","",""
"","","","","","canvas-keyboard-response","261","282883","0.0-12.0-4.49","2d_cat_multi_stim_exp1","2022-4-25","10:51:20","25","75","3","9","10","40","30","120","54","20","[""Asian""]","No","Female","1810958","null","null","","","","clear_screen","","","","","","","","","","","","","","","","","","","","","","","","","",""
"","","","","","canvas-keyboard-response","262","283394","0.0-12.0-0.50","2d_cat_multi_stim_exp1","2022-4-25","10:51:20","25","75","3","9","10","40","30","120","54","20","[""Asian""]","No","Female","1810958","null","null","","","","fixation","","","","","","","","","","","","","","","","","","","","","","","","","",""
"","","","","","canvas-keyboard-response","263","283906","0.0-12.0-1.50","2d_cat_multi_stim_exp1","2022-4-25","10:51:20","25","75","3","9","10","40","30","120","54","20","[""Asian""]","No","Female","1810958","null","null","","","","clear_screen","","","","","","","","","","","","","","","","","","","","","","","","","",""
"","","","","","canvas-keyboard-response","264","285216","0.0-12.0-2.50","2d_cat_multi_stim_exp1","2022-4-25","10:51:20","25","75","3","9","10","40","30","120","54","20","[""Asian""]","No","Female","1810958","1299","i","learn","","","learn_trial","16.6667","110","out","0","1","","","","","","","","","","","","","","","","","","","","",""
"","","","","","canvas-keyboard-response","265","285727","0.0-12.0-3.50","2d_cat_multi_stim_exp1","2022-4-25","10:51:20","25","75","3","9","10","40","30","120","54","20","[""Asian""]","No","Female","1810958","null","null","learn_feedback","","","learn_feedback","16.6667","110","out","","","","","","","","","","","","","","","","","","","","","","",""
"","","","","","canvas-keyboard-response","266","285788","0.0-12.0-4.50","2d_cat_multi_stim_exp1","2022-4-25","10:51:20","25","75","3","9","10","40","30","120","54","20","[""Asian""]","No","Female","1810958","null","null","","","","clear_screen","","","","","","","","","","","","","","","","","","","","","","","","","",""
"","","","","","canvas-keyboard-response","267","286296","0.0-12.0-0.51","2d_cat_multi_stim_exp1","2022-4-25","10:51:20","25","75","3","9","10","40","30","120","54","20","[""Asian""]","No","Female","1810958","null","null","","","","fixation","","","","","","","","","","","","","","","","","","","","","","","","","",""
"","","","","","canvas-keyboard-response","268","286810","0.0-12.0-1.51","2d_cat_multi_stim_exp1","2022-4-25","10:51:20","25","75","3","9","10","40","30","120","54","20","[""Asian""]","No","Female","1810958","null","null","","","","clear_screen","","","","","","","","","","","","","","","","","","","","","","","","","",""
"","","","","","canvas-keyboard-response","269","287977","0.0-12.0-2.51","2d_cat_multi_stim_exp1","2022-4-25","10:51:20","25","75","3","9","10","40","30","120","54","20","[""Asian""]","No","Female","1810958","1154","u","learn","","","learn_trial","24.8654","83.9909","in","1","1","","","","","","","","","","","","","","","","","","","","",""
"","","","","","canvas-keyboard-response","270","288487","0.0-12.0-3.51","2d_cat_multi_stim_exp1","2022-4-25","10:51:20","25","75","3","9","10","40","30","120","54","20","[""Asian""]","No","Female","1810958","null","null","learn_feedback","","","learn_feedback","24.8654","83.9909","in","","","","","","","","","","","","","","","","","","","","","","",""
"","","","","","canvas-keyboard-response","271","288549","0.0-12.0-4.51","2d_cat_multi_stim_exp1","2022-4-25","10:51:20","25","75","3","9","10","40","30","120","54","20","[""Asian""]","No","Female","1810958","null","null","","","","clear_screen","","","","","","","","","","","","","","","","","","","","","","","","","",""
"","","","","","canvas-keyboard-response","272","289057","0.0-12.0-0.52","2d_cat_multi_stim_exp1","2022-4-25","10:51:20","25","75","3","9","10","40","30","120","54","20","[""Asian""]","No","Female","1810958","null","null","","","","fixation","","","","","","","","","","","","","","","","","","","","","","","","","",""
"","","","","","canvas-keyboard-response","273","289569","0.0-12.0-1.52","2d_cat_multi_stim_exp1","2022-4-25","10:51:20","25","75","3","9","10","40","30","120","54","20","[""Asian""]","No","Female","1810958","null","null","","","","clear_screen","","","","","","","","","","","","","","","","","","","","","","","","","",""
"","","","","","canvas-keyboard-response","274","290365","0.0-12.0-2.52","2d_cat_multi_stim_exp1","2022-4-25","10:51:20","25","75","3","9","10","40","30","120","54","20","[""Asian""]","No","Female","1810958","787","i","learn","","","learn_trial","24.8654","66.0091","in","0","0","","","","","","","","","","","","","","","","","","","","",""
"","","","","","canvas-keyboard-response","275","291372","0.0-12.0-3.52","2d_cat_multi_stim_exp1","2022-4-25","10:51:20","25","75","3","9","10","40","30","120","54","20","[""Asian""]","No","Female","1810958","null","null","learn_feedback","","","learn_feedback","24.8654","66.0091","in","","","","","","","","","","","","","","","","","","","","","","",""
"","","","","","canvas-keyboard-response","276","291430","0.0-12.0-4.52","2d_cat_multi_stim_exp1","2022-4-25","10:51:20","25","75","3","9","10","40","30","120","54","20","[""Asian""]","No","Female","1810958","null","null","","","","clear_screen","","","","","","","","","","","","","","","","","","","","","","","","","",""
"","","","","","canvas-keyboard-response","277","291940","0.0-12.0-0.53","2d_cat_multi_stim_exp1","2022-4-25","10:51:20","25","75","3","9","10","40","30","120","54","20","[""Asian""]","No","Female","1810958","null","null","","","","fixation","","","","","","","","","","","","","","","","","","","","","","","","","",""
"","","","","","canvas-keyboard-response","278","292455","0.0-12.0-1.53","2d_cat_multi_stim_exp1","2022-4-25","10:51:20","25","75","3","9","10","40","30","120","54","20","[""Asian""]","No","Female","1810958","null","null","","","","clear_screen","","","","","","","","","","","","","","","","","","","","","","","","","",""
"","","","","","canvas-keyboard-response","279","294024","0.0-12.0-2.53","2d_cat_multi_stim_exp1","2022-4-25","10:51:20","25","75","3","9","10","40","30","120","54","20","[""Asian""]","No","Female","1810958","1562","i","learn","","","learn_trial","22.9268","81.5052","in","0","0","","","","","","","","","","","","","","","","","","","","",""
"","","","","","canvas-keyboard-response","280","295037","0.0-12.0-3.53","2d_cat_multi_stim_exp1","2022-4-25","10:51:20","25","75","3","9","10","40","30","120","54","20","[""Asian""]","No","Female","1810958","null","null","learn_feedback","","","learn_feedback","22.9268","81.5052","in","","","","","","","","","","","","","","","","","","","","","","",""
"","","","","","canvas-keyboard-response","281","295101","0.0-12.0-4.53","2d_cat_multi_stim_exp1","2022-4-25","10:51:20","25","75","3","9","10","40","30","120","54","20","[""Asian""]","No","Female","1810958","null","null","","","","clear_screen","","","","","","","","","","","","","","","","","","","","","","","","","",""
"","","","","","canvas-keyboard-response","282","295612","0.0-12.0-0.54","2d_cat_multi_stim_exp1","2022-4-25","10:51:20","25","75","3","9","10","40","30","120","54","20","[""Asian""]","No","Female","1810958","null","null","","","","fixation","","","","","","","","","","","","","","","","","","","","","","","","","",""
"","","","","","canvas-keyboard-response","283","296128","0.0-12.0-1.54","2d_cat_multi_stim_exp1","2022-4-25","10:51:20","25","75","3","9","10","40","30","120","54","20","[""Asian""]","No","Female","1810958","null","null","","","","clear_screen","","","","","","","","","","","","","","","","","","","","","","","","","",""
"","","","","","canvas-keyboard-response","284","297009","0.0-12.0-2.54","2d_cat_multi_stim_exp1","2022-4-25","10:51:20","25","75","3","9","10","40","30","120","54","20","[""Asian""]","No","Female","1810958","868","i","learn","","","learn_trial","36.6667","100","out","0","1","","","","","","","","","","","","","","","","","","","","",""
"","","","","","canvas-keyboard-response","285","297518","0.0-12.0-3.54","2d_cat_multi_stim_exp1","2022-4-25","10:51:20","25","75","3","9","10","40","30","120","54","20","[""Asian""]","No","Female","1810958","null","null","learn_feedback","","","learn_feedback","36.6667","100","out","","","","","","","","","","","","","","","","","","","","","","",""
"","","","","","canvas-keyboard-response","286","297578","0.0-12.0-4.54","2d_cat_multi_stim_exp1","2022-4-25","10:51:20","25","75","3","9","10","40","30","120","54","20","[""Asian""]","No","Female","1810958","null","null","","","","clear_screen","","","","","","","","","","","","","","","","","","","","","","","","","",""
"","","","","","canvas-keyboard-response","287","298087","0.0-12.0-0.55","2d_cat_multi_stim_exp1","2022-4-25","10:51:20","25","75","3","9","10","40","30","120","54","20","[""Asian""]","No","Female","1810958","null","null","","","","fixation","","","","","","","","","","","","","","","","","","","","","","","","","",""
"","","","","","canvas-keyboard-response","288","298599","0.0-12.0-1.55","2d_cat_multi_stim_exp1","2022-4-25","10:51:20","25","75","3","9","10","40","30","120","54","20","[""Asian""]","No","Female","1810958","null","null","","","","clear_screen","","","","","","","","","","","","","","","","","","","","","","","","","",""
"","","","","","canvas-keyboard-response","289","299545","0.0-12.0-2.55","2d_cat_multi_stim_exp1","2022-4-25","10:51:20","25","75","3","9","10","40","30","120","54","20","[""Asian""]","No","Female","1810958","934","i","learn","","","learn_trial","16.6667","30","out","0","1","","","","","","","","","","","","","","","","","","","","",""
"","","","","","canvas-keyboard-response","290","300058","0.0-12.0-3.55","2d_cat_multi_stim_exp1","2022-4-25","10:51:20","25","75","3","9","10","40","30","120","54","20","[""Asian""]","No","Female","1810958","null","null","learn_feedback","","","learn_feedback","16.6667","30","out","","","","","","","","","","","","","","","","","","","","","","",""
"","","","","","canvas-keyboard-response","291","300120","0.0-12.0-4.55","2d_cat_multi_stim_exp1","2022-4-25","10:51:20","25","75","3","9","10","40","30","120","54","20","[""Asian""]","No","Female","1810958","null","null","","","","clear_screen","","","","","","","","","","","","","","","","","","","","","","","","","",""
"","","","","","canvas-keyboard-response","292","300632","0.0-12.0-0.56","2d_cat_multi_stim_exp1","2022-4-25","10:51:20","25","75","3","9","10","40","30","120","54","20","[""Asian""]","No","Female","1810958","null","null","","","","fixation","","","","","","","","","","","","","","","","","","","","","","","","","",""
"","","","","","canvas-keyboard-response","293","301144","0.0-12.0-1.56","2d_cat_multi_stim_exp1","2022-4-25","10:51:20","25","75","3","9","10","40","30","120","54","20","[""Asian""]","No","Female","1810958","null","null","","","","clear_screen","","","","","","","","","","","","","","","","","","","","","","","","","",""
"","","","","","canvas-keyboard-response","294","302025","0.0-12.0-2.56","2d_cat_multi_stim_exp1","2022-4-25","10:51:20","25","75","3","9","10","40","30","120","54","20","[""Asian""]","No","Female","1810958","871","u","learn","","","learn_trial","25.9271","83.5595","in","1","1","","","","","","","","","","","","","","","","","","","","",""
"","","","","","canvas-keyboard-response","295","302535","0.0-12.0-3.56","2d_cat_multi_stim_exp1","2022-4-25","10:51:20","25","75","3","9","10","40","30","120","54","20","[""Asian""]","No","Female","1810958","null","null","learn_feedback","","","learn_feedback","25.9271","83.5595","in","","","","","","","","","","","","","","","","","","","","","","",""
"","","","","","canvas-keyboard-response","296","302594","0.0-12.0-4.56","2d_cat_multi_stim_exp1","2022-4-25","10:51:20","25","75","3","9","10","40","30","120","54","20","[""Asian""]","No","Female","1810958","null","null","","","","clear_screen","","","","","","","","","","","","","","","","","","","","","","","","","",""
