"success","timeout","failed_images","failed_audio","failed_video","trial_type","trial_index","time_elapsed","internal_node_id","exp_name","date","time","angle_mean_in","radius_mean_in","angle_sd_in","radius_sd_in","angle_min_out","angle_max_out","radius_min_out","radius_max_out","sub_n","age","race","ethnicity","gender","exp_duration","rt","stimulus","response","exp_trial_type","view_history","screen_id","angle","radius","distribution","choice","correct","order","angle_a","radius_a","angle_b","radius_b","angle_c","radius_c","jkl_correct","transfer_trial_type","choice_set","abc_correct","tc_correct","tdc_a","tdc_b","tdc_c","pair","category_a","category_b","category_c","question_order"
"true","false","[]","[]","[]","preload","0","18","0.0-0.0","2d_cat_multi_stim_exp1","2022-3-28","11:25:54","25","75","3","9","10","40","30","120","4","20","[""White""]","No","Female","1831819","","","","","","","","","","","","","","","","","","","","","","","","","","","","","","",""
"","","","","","html-button-response","1","10473","0.0-1.0","2d_cat_multi_stim_exp1","2022-3-28","11:25:54","25","75","3","9","10","40","30","120","4","20","[""White""]","No","Female","1831819","10454","<p><b>WAIT!</b></p></p><p>Did you mean to start this experiment? Only Walker, Esther, and Sean are running participants on this experiment.</p>","0","","","","","","","","","","","","","","","","","","","","","","","","","","","",""
"","","","","","survey-html-form","2","45866","0.0-2.0","2d_cat_multi_stim_exp1","2022-3-28","11:25:54","25","75","3","9","10","40","30","120","4","20","[""White""]","No","Female","1831819","35378","","{""response"":""4""}","enter-sub-number","","","","","","","","","","","","","","","","","","","","","","","","","","",""
"true","","","","","fullscreen","3","58520","0.0-3.0","2d_cat_multi_stim_exp1","2022-3-28","11:25:54","25","75","3","9","10","40","30","120","4","20","[""White""]","No","Female","1831819","","","","","","","","","","","","","","","","","","","","","","","","","","","","","","",""
"","","","","","image-button-response","4","117737","0.0-4.0","2d_cat_multi_stim_exp1","2022-3-28","11:25:54","25","75","3","9","10","40","30","120","4","20","[""White""]","No","Female","1831819","59210","consent.png","0","","","","","","","","","","","","","","","","","","","","","","","","","","","",""
"","","","","","html-button-response","5","123136","0.0-5.0","2d_cat_multi_stim_exp1","2022-3-28","11:25:54","25","75","3","9","10","40","30","120","4","20","[""White""]","No","Female","1831819","5395","<div style= ""font-size:25px;"" <p> <strong> Welcome to the experiment! </strong><br> <p style=""color:#8B0000; font-size:25px;""><strong> Please do NOT exit full screen until you are done with the experiment. </strong> </p><p style=""font-size:25px;color:#8B0000;""> <strong> The experiment will be canceled and your data will be lost <br> if you try to go back or refresh the page at any point during the experiment.</strong> </p><br><p> <strong> Thanks in advance for your contribution to our research! </strong></p>","0","","","","","","","","","","","","","","","","","","","","","","","","","","","",""
"","","","","","instructions","6","171799","0.0-6.0","2d_cat_multi_stim_exp1","2022-3-28","11:25:54","25","75","3","9","10","40","30","120","4","20","[""White""]","No","Female","1831819","48660","","","","[{""page_index"":0,""viewing_time"":3636},{""page_index"":1,""viewing_time"":2064},{""page_index"":2,""viewing_time"":19888},{""page_index"":3,""viewing_time"":23071}]","instructions_1","","","","","","","","","","","","","","","","","","","","","","","","",""
"","","","","","instructions","7","173567","0.0-7.0","2d_cat_multi_stim_exp1","2022-3-28","11:25:54","25","75","3","9","10","40","30","120","4","20","[""White""]","No","Female","1831819","1765","","","","[{""page_index"":0,""viewing_time"":1765}]","Click to see the kinds of turtles that will appear in the study.","","","","","","","","","","","","","","","","","","","","","","","","",""
"","","","","","canvas-keyboard-response","8","188587","0.0-8.0","2d_cat_multi_stim_exp1","2022-3-28","11:25:54","25","75","3","9","10","40","30","120","4","20","[""White""]","No","Female","1831819","null","","null","","","demo_range","","","","","","","","","","","","","","","","","","","","","","","","",""
"","","","","","instructions","9","191127","0.0-9.0","2d_cat_multi_stim_exp1","2022-3-28","11:25:54","25","75","3","9","10","40","30","120","4","20","[""White""]","No","Female","1831819","2039","","","","[{""page_index"":0,""viewing_time"":2039}]","Click to see some turtles in the subspecies.","","","","","","","","","","","","","","","","","","","","","","","","",""
"","","","","","canvas-keyboard-response","10","206148","0.0-10.0","2d_cat_multi_stim_exp1","2022-3-28","11:25:54","25","75","3","9","10","40","30","120","4","20","[""White""]","No","Female","1831819","null","","null","","","demo_in","","","","","","","","","","","","","","","","","","","","","","","","",""
"","","","","","instructions","11","231664","0.0-11.0","2d_cat_multi_stim_exp1","2022-3-28","11:25:54","25","75","3","9","10","40","30","120","4","20","[""White""]","No","Female","1831819","25012","","","","[{""page_index"":0,""viewing_time"":5132},{""page_index"":1,""viewing_time"":14888},{""page_index"":2,""viewing_time"":4992}]","instructions_2","","","","","","","","","","","","","","","","","","","","","","","","",""
"","","","","","instructions","12","232870","0.0-12.0","2d_cat_multi_stim_exp1","2022-3-28","11:25:54","25","75","3","9","10","40","30","120","4","20","[""White""]","No","Female","1831819","1204","","","","[{""page_index"":0,""viewing_time"":1204}]","Click to begin the first phase of the experiment.","","","","","","","","","","","","","","","","","","","","","","","","",""
"","","","","","canvas-keyboard-response","13","233384","0.0-13.0-0.0","2d_cat_multi_stim_exp1","2022-3-28","11:25:54","25","75","3","9","10","40","30","120","4","20","[""White""]","No","Female","1831819","null","","null","","","fixation","","","","","","","","","","","","","","","","","","","","","","","","",""
"","","","","","canvas-keyboard-response","14","233892","0.0-13.0-1.0","2d_cat_multi_stim_exp1","2022-3-28","11:25:54","25","75","3","9","10","40","30","120","4","20","[""White""]","No","Female","1831819","null","","null","","","clear_screen","","","","","","","","","","","","","","","","","","","","","","","","",""
"","","","","","canvas-keyboard-response","15","238672","0.0-13.0-2.0","2d_cat_multi_stim_exp1","2022-3-28","11:25:54","25","75","3","9","10","40","30","120","4","20","[""White""]","No","Female","1831819","4769","","u","learn","","learn_trial","20","90","out","1","0","","","","","","","","","","","","","","","","","","","",""
"","","","","","canvas-keyboard-response","16","239683","0.0-13.0-3.0","2d_cat_multi_stim_exp1","2022-3-28","11:25:54","25","75","3","9","10","40","30","120","4","20","[""White""]","No","Female","1831819","null","","null","learn_feedback","","learn_feedback","20","90","out","","","","","","","","","","","","","","","","","","","","","",""
"","","","","","canvas-keyboard-response","17","239741","0.0-13.0-4.0","2d_cat_multi_stim_exp1","2022-3-28","11:25:54","25","75","3","9","10","40","30","120","4","20","[""White""]","No","Female","1831819","null","","null","","","clear_screen","","","","","","","","","","","","","","","","","","","","","","","","",""
"","","","","","canvas-keyboard-response","18","240253","0.0-13.0-0.1","2d_cat_multi_stim_exp1","2022-3-28","11:25:54","25","75","3","9","10","40","30","120","4","20","[""White""]","No","Female","1831819","null","","null","","","fixation","","","","","","","","","","","","","","","","","","","","","","","","",""
"","","","","","canvas-keyboard-response","19","240762","0.0-13.0-1.1","2d_cat_multi_stim_exp1","2022-3-28","11:25:54","25","75","3","9","10","40","30","120","4","20","[""White""]","No","Female","1831819","null","","null","","","clear_screen","","","","","","","","","","","","","","","","","","","","","","","","",""
"","","","","","canvas-keyboard-response","20","242920","0.0-13.0-2.1","2d_cat_multi_stim_exp1","2022-3-28","11:25:54","25","75","3","9","10","40","30","120","4","20","[""White""]","No","Female","1831819","2148","","i","learn","","learn_trial","23.3333","40","out","0","1","","","","","","","","","","","","","","","","","","","",""
"","","","","","canvas-keyboard-response","21","243430","0.0-13.0-3.1","2d_cat_multi_stim_exp1","2022-3-28","11:25:54","25","75","3","9","10","40","30","120","4","20","[""White""]","No","Female","1831819","null","","null","learn_feedback","","learn_feedback","23.3333","40","out","","","","","","","","","","","","","","","","","","","","","",""
"","","","","","canvas-keyboard-response","22","243489","0.0-13.0-4.1","2d_cat_multi_stim_exp1","2022-3-28","11:25:54","25","75","3","9","10","40","30","120","4","20","[""White""]","No","Female","1831819","null","","null","","","clear_screen","","","","","","","","","","","","","","","","","","","","","","","","",""
"","","","","","canvas-keyboard-response","23","243998","0.0-13.0-0.2","2d_cat_multi_stim_exp1","2022-3-28","11:25:54","25","75","3","9","10","40","30","120","4","20","[""White""]","No","Female","1831819","null","","null","","","fixation","","","","","","","","","","","","","","","","","","","","","","","","",""
"","","","","","canvas-keyboard-response","24","244507","0.0-13.0-1.2","2d_cat_multi_stim_exp1","2022-3-28","11:25:54","25","75","3","9","10","40","30","120","4","20","[""White""]","No","Female","1831819","null","","null","","","clear_screen","","","","","","","","","","","","","","","","","","","","","","","","",""
"","","","","","canvas-keyboard-response","25","246216","0.0-13.0-2.2","2d_cat_multi_stim_exp1","2022-3-28","11:25:54","25","75","3","9","10","40","30","120","4","20","[""White""]","No","Female","1831819","1700","","u","learn","","learn_trial","36.6667","110","out","1","0","","","","","","","","","","","","","","","","","","","",""
"","","","","","canvas-keyboard-response","26","247224","0.0-13.0-3.2","2d_cat_multi_stim_exp1","2022-3-28","11:25:54","25","75","3","9","10","40","30","120","4","20","[""White""]","No","Female","1831819","null","","null","learn_feedback","","learn_feedback","36.6667","110","out","","","","","","","","","","","","","","","","","","","","","",""
"","","","","","canvas-keyboard-response","27","247282","0.0-13.0-4.2","2d_cat_multi_stim_exp1","2022-3-28","11:25:54","25","75","3","9","10","40","30","120","4","20","[""White""]","No","Female","1831819","null","","null","","","clear_screen","","","","","","","","","","","","","","","","","","","","","","","","",""
"","","","","","canvas-keyboard-response","28","247792","0.0-13.0-0.3","2d_cat_multi_stim_exp1","2022-3-28","11:25:54","25","75","3","9","10","40","30","120","4","20","[""White""]","No","Female","1831819","null","","null","","","fixation","","","","","","","","","","","","","","","","","","","","","","","","",""
"","","","","","canvas-keyboard-response","29","248300","0.0-13.0-1.3","2d_cat_multi_stim_exp1","2022-3-28","11:25:54","25","75","3","9","10","40","30","120","4","20","[""White""]","No","Female","1831819","null","","null","","","clear_screen","","","","","","","","","","","","","","","","","","","","","","","","",""
"","","","","","canvas-keyboard-response","30","249376","0.0-13.0-2.3","2d_cat_multi_stim_exp1","2022-3-28","11:25:54","25","75","3","9","10","40","30","120","4","20","[""White""]","No","Female","1831819","1066","","i","learn","","learn_trial","30","40","out","0","1","","","","","","","","","","","","","","","","","","","",""
"","","","","","canvas-keyboard-response","31","249884","0.0-13.0-3.3","2d_cat_multi_stim_exp1","2022-3-28","11:25:54","25","75","3","9","10","40","30","120","4","20","[""White""]","No","Female","1831819","null","","null","learn_feedback","","learn_feedback","30","40","out","","","","","","","","","","","","","","","","","","","","","",""
"","","","","","canvas-keyboard-response","32","249942","0.0-13.0-4.3","2d_cat_multi_stim_exp1","2022-3-28","11:25:54","25","75","3","9","10","40","30","120","4","20","[""White""]","No","Female","1831819","null","","null","","","clear_screen","","","","","","","","","","","","","","","","","","","","","","","","",""
"","","","","","canvas-keyboard-response","33","250451","0.0-13.0-0.4","2d_cat_multi_stim_exp1","2022-3-28","11:25:54","25","75","3","9","10","40","30","120","4","20","[""White""]","No","Female","1831819","null","","null","","","fixation","","","","","","","","","","","","","","","","","","","","","","","","",""
"","","","","","canvas-keyboard-response","34","250963","0.0-13.0-1.4","2d_cat_multi_stim_exp1","2022-3-28","11:25:54","25","75","3","9","10","40","30","120","4","20","[""White""]","No","Female","1831819","null","","null","","","clear_screen","","","","","","","","","","","","","","","","","","","","","","","","",""
"","","","","","canvas-keyboard-response","35","252112","0.0-13.0-2.4","2d_cat_multi_stim_exp1","2022-3-28","11:25:54","25","75","3","9","10","40","30","120","4","20","[""White""]","No","Female","1831819","1138","","i","learn","","learn_trial","13.3333","100","out","0","1","","","","","","","","","","","","","","","","","","","",""
"","","","","","canvas-keyboard-response","36","252622","0.0-13.0-3.4","2d_cat_multi_stim_exp1","2022-3-28","11:25:54","25","75","3","9","10","40","30","120","4","20","[""White""]","No","Female","1831819","null","","null","learn_feedback","","learn_feedback","13.3333","100","out","","","","","","","","","","","","","","","","","","","","","",""
"","","","","","canvas-keyboard-response","37","252682","0.0-13.0-4.4","2d_cat_multi_stim_exp1","2022-3-28","11:25:54","25","75","3","9","10","40","30","120","4","20","[""White""]","No","Female","1831819","null","","null","","","clear_screen","","","","","","","","","","","","","","","","","","","","","","","","",""
"","","","","","canvas-keyboard-response","38","253190","0.0-13.0-0.5","2d_cat_multi_stim_exp1","2022-3-28","11:25:54","25","75","3","9","10","40","30","120","4","20","[""White""]","No","Female","1831819","null","","null","","","fixation","","","","","","","","","","","","","","","","","","","","","","","","",""
"","","","","","canvas-keyboard-response","39","253700","0.0-13.0-1.5","2d_cat_multi_stim_exp1","2022-3-28","11:25:54","25","75","3","9","10","40","30","120","4","20","[""White""]","No","Female","1831819","null","","null","","","clear_screen","","","","","","","","","","","","","","","","","","","","","","","","",""
"","","","","","canvas-keyboard-response","40","254992","0.0-13.0-2.5","2d_cat_multi_stim_exp1","2022-3-28","11:25:54","25","75","3","9","10","40","30","120","4","20","[""White""]","No","Female","1831819","1282","","u","learn","","learn_trial","26.6667","80","out","1","0","","","","","","","","","","","","","","","","","","","",""
"","","","","","canvas-keyboard-response","41","256000","0.0-13.0-3.5","2d_cat_multi_stim_exp1","2022-3-28","11:25:54","25","75","3","9","10","40","30","120","4","20","[""White""]","No","Female","1831819","null","","null","learn_feedback","","learn_feedback","26.6667","80","out","","","","","","","","","","","","","","","","","","","","","",""
"","","","","","canvas-keyboard-response","42","256059","0.0-13.0-4.5","2d_cat_multi_stim_exp1","2022-3-28","11:25:54","25","75","3","9","10","40","30","120","4","20","[""White""]","No","Female","1831819","null","","null","","","clear_screen","","","","","","","","","","","","","","","","","","","","","","","","",""
"","","","","","canvas-keyboard-response","43","256568","0.0-13.0-0.6","2d_cat_multi_stim_exp1","2022-3-28","11:25:54","25","75","3","9","10","40","30","120","4","20","[""White""]","No","Female","1831819","null","","null","","","fixation","","","","","","","","","","","","","","","","","","","","","","","","",""
"","","","","","canvas-keyboard-response","44","257079","0.0-13.0-1.6","2d_cat_multi_stim_exp1","2022-3-28","11:25:54","25","75","3","9","10","40","30","120","4","20","[""White""]","No","Female","1831819","null","","null","","","clear_screen","","","","","","","","","","","","","","","","","","","","","","","","",""
"","","","","","canvas-keyboard-response","45","257943","0.0-13.0-2.6","2d_cat_multi_stim_exp1","2022-3-28","11:25:54","25","75","3","9","10","40","30","120","4","20","[""White""]","No","Female","1831819","854","","i","learn","","learn_trial","25","57","in","0","0","","","","","","","","","","","","","","","","","","","",""
"","","","","","canvas-keyboard-response","46","258952","0.0-13.0-3.6","2d_cat_multi_stim_exp1","2022-3-28","11:25:54","25","75","3","9","10","40","30","120","4","20","[""White""]","No","Female","1831819","null","","null","learn_feedback","","learn_feedback","25","57","in","","","","","","","","","","","","","","","","","","","","","",""
"","","","","","canvas-keyboard-response","47","259011","0.0-13.0-4.6","2d_cat_multi_stim_exp1","2022-3-28","11:25:54","25","75","3","9","10","40","30","120","4","20","[""White""]","No","Female","1831819","null","","null","","","clear_screen","","","","","","","","","","","","","","","","","","","","","","","","",""
"","","","","","canvas-keyboard-response","48","259519","0.0-13.0-0.7","2d_cat_multi_stim_exp1","2022-3-28","11:25:54","25","75","3","9","10","40","30","120","4","20","[""White""]","No","Female","1831819","null","","null","","","fixation","","","","","","","","","","","","","","","","","","","","","","","","",""
"","","","","","canvas-keyboard-response","49","260029","0.0-13.0-1.7","2d_cat_multi_stim_exp1","2022-3-28","11:25:54","25","75","3","9","10","40","30","120","4","20","[""White""]","No","Female","1831819","null","","null","","","clear_screen","","","","","","","","","","","","","","","","","","","","","","","","",""
"","","","","","canvas-keyboard-response","50","261135","0.0-13.0-2.7","2d_cat_multi_stim_exp1","2022-3-28","11:25:54","25","75","3","9","10","40","30","120","4","20","[""White""]","No","Female","1831819","1098","","i","learn","","learn_trial","22.5729","80.2901","in","0","0","","","","","","","","","","","","","","","","","","","",""
"","","","","","canvas-keyboard-response","51","262145","0.0-13.0-3.7","2d_cat_multi_stim_exp1","2022-3-28","11:25:54","25","75","3","9","10","40","30","120","4","20","[""White""]","No","Female","1831819","null","","null","learn_feedback","","learn_feedback","22.5729","80.2901","in","","","","","","","","","","","","","","","","","","","","","",""
"","","","","","canvas-keyboard-response","52","262203","0.0-13.0-4.7","2d_cat_multi_stim_exp1","2022-3-28","11:25:54","25","75","3","9","10","40","30","120","4","20","[""White""]","No","Female","1831819","null","","null","","","clear_screen","","","","","","","","","","","","","","","","","","","","","","","","",""
"","","","","","canvas-keyboard-response","53","262711","0.0-13.0-0.8","2d_cat_multi_stim_exp1","2022-3-28","11:25:54","25","75","3","9","10","40","30","120","4","20","[""White""]","No","Female","1831819","null","","null","","","fixation","","","","","","","","","","","","","","","","","","","","","","","","",""
"","","","","","canvas-keyboard-response","54","263219","0.0-13.0-1.8","2d_cat_multi_stim_exp1","2022-3-28","11:25:54","25","75","3","9","10","40","30","120","4","20","[""White""]","No","Female","1831819","null","","null","","","clear_screen","","","","","","","","","","","","","","","","","","","","","","","","",""
"","","","","","canvas-keyboard-response","55","264040","0.0-13.0-2.8","2d_cat_multi_stim_exp1","2022-3-28","11:25:54","25","75","3","9","10","40","30","120","4","20","[""White""]","No","Female","1831819","812","","u","learn","","learn_trial","22.5729","69.7099","in","1","1","","","","","","","","","","","","","","","","","","","",""
"","","","","","canvas-keyboard-response","56","264549","0.0-13.0-3.8","2d_cat_multi_stim_exp1","2022-3-28","11:25:54","25","75","3","9","10","40","30","120","4","20","[""White""]","No","Female","1831819","null","","null","learn_feedback","","learn_feedback","22.5729","69.7099","in","","","","","","","","","","","","","","","","","","","","","",""
"","","","","","canvas-keyboard-response","57","264607","0.0-13.0-4.8","2d_cat_multi_stim_exp1","2022-3-28","11:25:54","25","75","3","9","10","40","30","120","4","20","[""White""]","No","Female","1831819","null","","null","","","clear_screen","","","","","","","","","","","","","","","","","","","","","","","","",""
"","","","","","canvas-keyboard-response","58","265115","0.0-13.0-0.9","2d_cat_multi_stim_exp1","2022-3-28","11:25:54","25","75","3","9","10","40","30","120","4","20","[""White""]","No","Female","1831819","null","","null","","","fixation","","","","","","","","","","","","","","","","","","","","","","","","",""
"","","","","","canvas-keyboard-response","59","265624","0.0-13.0-1.9","2d_cat_multi_stim_exp1","2022-3-28","11:25:54","25","75","3","9","10","40","30","120","4","20","[""White""]","No","Female","1831819","null","","null","","","clear_screen","","","","","","","","","","","","","","","","","","","","","","","","",""
"","","","","","canvas-keyboard-response","60","266535","0.0-13.0-2.9","2d_cat_multi_stim_exp1","2022-3-28","11:25:54","25","75","3","9","10","40","30","120","4","20","[""White""]","No","Female","1831819","897","","i","learn","","learn_trial","10","80","out","0","1","","","","","","","","","","","","","","","","","","","",""
"","","","","","canvas-keyboard-response","61","267045","0.0-13.0-3.9","2d_cat_multi_stim_exp1","2022-3-28","11:25:54","25","75","3","9","10","40","30","120","4","20","[""White""]","No","Female","1831819","null","","null","learn_feedback","","learn_feedback","10","80","out","","","","","","","","","","","","","","","","","","","","","",""
"","","","","","canvas-keyboard-response","62","267102","0.0-13.0-4.9","2d_cat_multi_stim_exp1","2022-3-28","11:25:54","25","75","3","9","10","40","30","120","4","20","[""White""]","No","Female","1831819","null","","null","","","clear_screen","","","","","","","","","","","","","","","","","","","","","","","","",""
"","","","","","canvas-keyboard-response","63","267611","0.0-13.0-0.10","2d_cat_multi_stim_exp1","2022-3-28","11:25:54","25","75","3","9","10","40","30","120","4","20","[""White""]","No","Female","1831819","null","","null","","","fixation","","","","","","","","","","","","","","","","","","","","","","","","",""
"","","","","","canvas-keyboard-response","64","268120","0.0-13.0-1.10","2d_cat_multi_stim_exp1","2022-3-28","11:25:54","25","75","3","9","10","40","30","120","4","20","[""White""]","No","Female","1831819","null","","null","","","clear_screen","","","","","","","","","","","","","","","","","","","","","","","","",""
"","","","","","canvas-keyboard-response","65","269104","0.0-13.0-2.10","2d_cat_multi_stim_exp1","2022-3-28","11:25:54","25","75","3","9","10","40","30","120","4","20","[""White""]","No","Female","1831819","976","","i","learn","","learn_trial","30","50","out","0","1","","","","","","","","","","","","","","","","","","","",""
"","","","","","canvas-keyboard-response","66","269614","0.0-13.0-3.10","2d_cat_multi_stim_exp1","2022-3-28","11:25:54","25","75","3","9","10","40","30","120","4","20","[""White""]","No","Female","1831819","null","","null","learn_feedback","","learn_feedback","30","50","out","","","","","","","","","","","","","","","","","","","","","",""
"","","","","","canvas-keyboard-response","67","269671","0.0-13.0-4.10","2d_cat_multi_stim_exp1","2022-3-28","11:25:54","25","75","3","9","10","40","30","120","4","20","[""White""]","No","Female","1831819","null","","null","","","clear_screen","","","","","","","","","","","","","","","","","","","","","","","","",""
"","","","","","canvas-keyboard-response","68","270179","0.0-13.0-0.11","2d_cat_multi_stim_exp1","2022-3-28","11:25:54","25","75","3","9","10","40","30","120","4","20","[""White""]","No","Female","1831819","null","","null","","","fixation","","","","","","","","","","","","","","","","","","","","","","","","",""
"","","","","","canvas-keyboard-response","69","270688","0.0-13.0-1.11","2d_cat_multi_stim_exp1","2022-3-28","11:25:54","25","75","3","9","10","40","30","120","4","20","[""White""]","No","Female","1831819","null","","null","","","clear_screen","","","","","","","","","","","","","","","","","","","","","","","","",""
"","","","","","canvas-keyboard-response","70","271831","0.0-13.0-2.11","2d_cat_multi_stim_exp1","2022-3-28","11:25:54","25","75","3","9","10","40","30","120","4","20","[""White""]","No","Female","1831819","1134","","u","learn","","learn_trial","25","75","in","1","1","","","","","","","","","","","","","","","","","","","",""
"","","","","","canvas-keyboard-response","71","272340","0.0-13.0-3.11","2d_cat_multi_stim_exp1","2022-3-28","11:25:54","25","75","3","9","10","40","30","120","4","20","[""White""]","No","Female","1831819","null","","null","learn_feedback","","learn_feedback","25","75","in","","","","","","","","","","","","","","","","","","","","","",""
"","","","","","canvas-keyboard-response","72","272398","0.0-13.0-4.11","2d_cat_multi_stim_exp1","2022-3-28","11:25:54","25","75","3","9","10","40","30","120","4","20","[""White""]","No","Female","1831819","null","","null","","","clear_screen","","","","","","","","","","","","","","","","","","","","","","","","",""
"","","","","","canvas-keyboard-response","73","272906","0.0-13.0-0.12","2d_cat_multi_stim_exp1","2022-3-28","11:25:54","25","75","3","9","10","40","30","120","4","20","[""White""]","No","Female","1831819","null","","null","","","fixation","","","","","","","","","","","","","","","","","","","","","","","","",""
"","","","","","canvas-keyboard-response","74","273414","0.0-13.0-1.12","2d_cat_multi_stim_exp1","2022-3-28","11:25:54","25","75","3","9","10","40","30","120","4","20","[""White""]","No","Female","1831819","null","","null","","","clear_screen","","","","","","","","","","","","","","","","","","","","","","","","",""
"","","","","","canvas-keyboard-response","75","274279","0.0-13.0-2.12","2d_cat_multi_stim_exp1","2022-3-28","11:25:54","25","75","3","9","10","40","30","120","4","20","[""White""]","No","Female","1831819","853","","i","learn","","learn_trial","20","120","out","0","1","","","","","","","","","","","","","","","","","","","",""
"","","","","","canvas-keyboard-response","76","274788","0.0-13.0-3.12","2d_cat_multi_stim_exp1","2022-3-28","11:25:54","25","75","3","9","10","40","30","120","4","20","[""White""]","No","Female","1831819","null","","null","learn_feedback","","learn_feedback","20","120","out","","","","","","","","","","","","","","","","","","","","","",""
"","","","","","canvas-keyboard-response","77","274847","0.0-13.0-4.12","2d_cat_multi_stim_exp1","2022-3-28","11:25:54","25","75","3","9","10","40","30","120","4","20","[""White""]","No","Female","1831819","null","","null","","","clear_screen","","","","","","","","","","","","","","","","","","","","","","","","",""
"","","","","","canvas-keyboard-response","78","275355","0.0-13.0-0.13","2d_cat_multi_stim_exp1","2022-3-28","11:25:54","25","75","3","9","10","40","30","120","4","20","[""White""]","No","Female","1831819","null","","null","","","fixation","","","","","","","","","","","","","","","","","","","","","","","","",""
"","","","","","canvas-keyboard-response","79","275863","0.0-13.0-1.13","2d_cat_multi_stim_exp1","2022-3-28","11:25:54","25","75","3","9","10","40","30","120","4","20","[""White""]","No","Female","1831819","null","","null","","","clear_screen","","","","","","","","","","","","","","","","","","","","","","","","",""
"","","","","","canvas-keyboard-response","80","277087","0.0-13.0-2.13","2d_cat_multi_stim_exp1","2022-3-28","11:25:54","25","75","3","9","10","40","30","120","4","20","[""White""]","No","Female","1831819","1215","","u","learn","","learn_trial","27.2592","80.9214","in","1","1","","","","","","","","","","","","","","","","","","","",""
"","","","","","canvas-keyboard-response","81","277595","0.0-13.0-3.13","2d_cat_multi_stim_exp1","2022-3-28","11:25:54","25","75","3","9","10","40","30","120","4","20","[""White""]","No","Female","1831819","null","","null","learn_feedback","","learn_feedback","27.2592","80.9214","in","","","","","","","","","","","","","","","","","","","","","",""
"","","","","","canvas-keyboard-response","82","277654","0.0-13.0-4.13","2d_cat_multi_stim_exp1","2022-3-28","11:25:54","25","75","3","9","10","40","30","120","4","20","[""White""]","No","Female","1831819","null","","null","","","clear_screen","","","","","","","","","","","","","","","","","","","","","","","","",""
"","","","","","canvas-keyboard-response","83","278163","0.0-13.0-0.14","2d_cat_multi_stim_exp1","2022-3-28","11:25:54","25","75","3","9","10","40","30","120","4","20","[""White""]","No","Female","1831819","null","","null","","","fixation","","","","","","","","","","","","","","","","","","","","","","","","",""
"","","","","","canvas-keyboard-response","84","278671","0.0-13.0-1.14","2d_cat_multi_stim_exp1","2022-3-28","11:25:54","25","75","3","9","10","40","30","120","4","20","[""White""]","No","Female","1831819","null","","null","","","clear_screen","","","","","","","","","","","","","","","","","","","","","","","","",""
"","","","","","canvas-keyboard-response","85","279382","0.0-13.0-2.14","2d_cat_multi_stim_exp1","2022-3-28","11:25:54","25","75","3","9","10","40","30","120","4","20","[""White""]","No","Female","1831819","703","","i","learn","","learn_trial","16.6667","40","out","0","1","","","","","","","","","","","","","","","","","","","",""
"","","","","","canvas-keyboard-response","86","279891","0.0-13.0-3.14","2d_cat_multi_stim_exp1","2022-3-28","11:25:54","25","75","3","9","10","40","30","120","4","20","[""White""]","No","Female","1831819","null","","null","learn_feedback","","learn_feedback","16.6667","40","out","","","","","","","","","","","","","","","","","","","","","",""
"","","","","","canvas-keyboard-response","87","279949","0.0-13.0-4.14","2d_cat_multi_stim_exp1","2022-3-28","11:25:54","25","75","3","9","10","40","30","120","4","20","[""White""]","No","Female","1831819","null","","null","","","clear_screen","","","","","","","","","","","","","","","","","","","","","","","","",""
"","","","","","canvas-keyboard-response","88","280457","0.0-13.0-0.15","2d_cat_multi_stim_exp1","2022-3-28","11:25:54","25","75","3","9","10","40","30","120","4","20","[""White""]","No","Female","1831819","null","","null","","","fixation","","","","","","","","","","","","","","","","","","","","","","","","",""
"","","","","","canvas-keyboard-response","89","280965","0.0-13.0-1.15","2d_cat_multi_stim_exp1","2022-3-28","11:25:54","25","75","3","9","10","40","30","120","4","20","[""White""]","No","Female","1831819","null","","null","","","clear_screen","","","","","","","","","","","","","","","","","","","","","","","","",""
"","","","","","canvas-keyboard-response","90","282088","0.0-13.0-2.15","2d_cat_multi_stim_exp1","2022-3-28","11:25:54","25","75","3","9","10","40","30","120","4","20","[""White""]","No","Female","1831819","1112","","i","learn","","learn_trial","33.3333","60","out","0","1","","","","","","","","","","","","","","","","","","","",""
"","","","","","canvas-keyboard-response","91","282601","0.0-13.0-3.15","2d_cat_multi_stim_exp1","2022-3-28","11:25:54","25","75","3","9","10","40","30","120","4","20","[""White""]","No","Female","1831819","null","","null","learn_feedback","","learn_feedback","33.3333","60","out","","","","","","","","","","","","","","","","","","","","","",""
"","","","","","canvas-keyboard-response","92","282661","0.0-13.0-4.15","2d_cat_multi_stim_exp1","2022-3-28","11:25:54","25","75","3","9","10","40","30","120","4","20","[""White""]","No","Female","1831819","null","","null","","","clear_screen","","","","","","","","","","","","","","","","","","","","","","","","",""
"","","","","","canvas-keyboard-response","93","283172","0.0-13.0-0.16","2d_cat_multi_stim_exp1","2022-3-28","11:25:54","25","75","3","9","10","40","30","120","4","20","[""White""]","No","Female","1831819","null","","null","","","fixation","","","","","","","","","","","","","","","","","","","","","","","","",""
"","","","","","canvas-keyboard-response","94","283681","0.0-13.0-1.16","2d_cat_multi_stim_exp1","2022-3-28","11:25:54","25","75","3","9","10","40","30","120","4","20","[""White""]","No","Female","1831819","null","","null","","","clear_screen","","","","","","","","","","","","","","","","","","","","","","","","",""
"","","","","","canvas-keyboard-response","95","284511","0.0-13.0-2.16","2d_cat_multi_stim_exp1","2022-3-28","11:25:54","25","75","3","9","10","40","30","120","4","20","[""White""]","No","Female","1831819","820","","u","learn","","learn_trial","25","75","in","1","1","","","","","","","","","","","","","","","","","","","",""
"","","","","","canvas-keyboard-response","96","285021","0.0-13.0-3.16","2d_cat_multi_stim_exp1","2022-3-28","11:25:54","25","75","3","9","10","40","30","120","4","20","[""White""]","No","Female","1831819","null","","null","learn_feedback","","learn_feedback","25","75","in","","","","","","","","","","","","","","","","","","","","","",""
"","","","","","canvas-keyboard-response","97","285080","0.0-13.0-4.16","2d_cat_multi_stim_exp1","2022-3-28","11:25:54","25","75","3","9","10","40","30","120","4","20","[""White""]","No","Female","1831819","null","","null","","","clear_screen","","","","","","","","","","","","","","","","","","","","","","","","",""
"","","","","","canvas-keyboard-response","98","285590","0.0-13.0-0.17","2d_cat_multi_stim_exp1","2022-3-28","11:25:54","25","75","3","9","10","40","30","120","4","20","[""White""]","No","Female","1831819","null","","null","","","fixation","","","","","","","","","","","","","","","","","","","","","","","","",""
"","","","","","canvas-keyboard-response","99","286099","0.0-13.0-1.17","2d_cat_multi_stim_exp1","2022-3-28","11:25:54","25","75","3","9","10","40","30","120","4","20","[""White""]","No","Female","1831819","null","","null","","","clear_screen","","","","","","","","","","","","","","","","","","","","","","","","",""
"","","","","","canvas-keyboard-response","100","286936","0.0-13.0-2.17","2d_cat_multi_stim_exp1","2022-3-28","11:25:54","25","75","3","9","10","40","30","120","4","20","[""White""]","No","Female","1831819","827","","i","learn","","learn_trial","23.3333","30","out","0","1","","","","","","","","","","","","","","","","","","","",""
"","","","","","canvas-keyboard-response","101","287444","0.0-13.0-3.17","2d_cat_multi_stim_exp1","2022-3-28","11:25:54","25","75","3","9","10","40","30","120","4","20","[""White""]","No","Female","1831819","null","","null","learn_feedback","","learn_feedback","23.3333","30","out","","","","","","","","","","","","","","","","","","","","","",""
"","","","","","canvas-keyboard-response","102","287503","0.0-13.0-4.17","2d_cat_multi_stim_exp1","2022-3-28","11:25:54","25","75","3","9","10","40","30","120","4","20","[""White""]","No","Female","1831819","null","","null","","","clear_screen","","","","","","","","","","","","","","","","","","","","","","","","",""
"","","","","","canvas-keyboard-response","103","288012","0.0-13.0-0.18","2d_cat_multi_stim_exp1","2022-3-28","11:25:54","25","75","3","9","10","40","30","120","4","20","[""White""]","No","Female","1831819","null","","null","","","fixation","","","","","","","","","","","","","","","","","","","","","","","","",""
"","","","","","canvas-keyboard-response","104","288520","0.0-13.0-1.18","2d_cat_multi_stim_exp1","2022-3-28","11:25:54","25","75","3","9","10","40","30","120","4","20","[""White""]","No","Female","1831819","null","","null","","","clear_screen","","","","","","","","","","","","","","","","","","","","","","","","",""
"","","","","","canvas-keyboard-response","105","289783","0.0-13.0-2.18","2d_cat_multi_stim_exp1","2022-3-28","11:25:54","25","75","3","9","10","40","30","120","4","20","[""White""]","No","Female","1831819","1254","","u","learn","","learn_trial","22.9268","68.4948","in","1","1","","","","","","","","","","","","","","","","","","","",""
"","","","","","canvas-keyboard-response","106","290292","0.0-13.0-3.18","2d_cat_multi_stim_exp1","2022-3-28","11:25:54","25","75","3","9","10","40","30","120","4","20","[""White""]","No","Female","1831819","null","","null","learn_feedback","","learn_feedback","22.9268","68.4948","in","","","","","","","","","","","","","","","","","","","","","",""
"","","","","","canvas-keyboard-response","107","290350","0.0-13.0-4.18","2d_cat_multi_stim_exp1","2022-3-28","11:25:54","25","75","3","9","10","40","30","120","4","20","[""White""]","No","Female","1831819","null","","null","","","clear_screen","","","","","","","","","","","","","","","","","","","","","","","","",""
"","","","","","canvas-keyboard-response","108","290859","0.0-13.0-0.19","2d_cat_multi_stim_exp1","2022-3-28","11:25:54","25","75","3","9","10","40","30","120","4","20","[""White""]","No","Female","1831819","null","","null","","","fixation","","","","","","","","","","","","","","","","","","","","","","","","",""
"","","","","","canvas-keyboard-response","109","291368","0.0-13.0-1.19","2d_cat_multi_stim_exp1","2022-3-28","11:25:54","25","75","3","9","10","40","30","120","4","20","[""White""]","No","Female","1831819","null","","null","","","clear_screen","","","","","","","","","","","","","","","","","","","","","","","","",""
"","","","","","canvas-keyboard-response","110","292463","0.0-13.0-2.19","2d_cat_multi_stim_exp1","2022-3-28","11:25:54","25","75","3","9","10","40","30","120","4","20","[""White""]","No","Female","1831819","1086","","u","learn","","learn_trial","25","75","in","1","1","","","","","","","","","","","","","","","","","","","",""
"","","","","","canvas-keyboard-response","111","292973","0.0-13.0-3.19","2d_cat_multi_stim_exp1","2022-3-28","11:25:54","25","75","3","9","10","40","30","120","4","20","[""White""]","No","Female","1831819","null","","null","learn_feedback","","learn_feedback","25","75","in","","","","","","","","","","","","","","","","","","","","","",""
"","","","","","canvas-keyboard-response","112","293030","0.0-13.0-4.19","2d_cat_multi_stim_exp1","2022-3-28","11:25:54","25","75","3","9","10","40","30","120","4","20","[""White""]","No","Female","1831819","null","","null","","","clear_screen","","","","","","","","","","","","","","","","","","","","","","","","",""
"","","","","","canvas-keyboard-response","113","293538","0.0-13.0-0.20","2d_cat_multi_stim_exp1","2022-3-28","11:25:54","25","75","3","9","10","40","30","120","4","20","[""White""]","No","Female","1831819","null","","null","","","fixation","","","","","","","","","","","","","","","","","","","","","","","","",""
"","","","","","canvas-keyboard-response","114","294046","0.0-13.0-1.20","2d_cat_multi_stim_exp1","2022-3-28","11:25:54","25","75","3","9","10","40","30","120","4","20","[""White""]","No","Female","1831819","null","","null","","","clear_screen","","","","","","","","","","","","","","","","","","","","","","","","",""
"","","","","","canvas-keyboard-response","115","294958","0.0-13.0-2.20","2d_cat_multi_stim_exp1","2022-3-28","11:25:54","25","75","3","9","10","40","30","120","4","20","[""White""]","No","Female","1831819","904","","u","learn","","learn_trial","25","75","in","1","1","","","","","","","","","","","","","","","","","","","",""
"","","","","","canvas-keyboard-response","116","295468","0.0-13.0-3.20","2d_cat_multi_stim_exp1","2022-3-28","11:25:54","25","75","3","9","10","40","30","120","4","20","[""White""]","No","Female","1831819","null","","null","learn_feedback","","learn_feedback","25","75","in","","","","","","","","","","","","","","","","","","","","","",""
"","","","","","canvas-keyboard-response","117","295526","0.0-13.0-4.20","2d_cat_multi_stim_exp1","2022-3-28","11:25:54","25","75","3","9","10","40","30","120","4","20","[""White""]","No","Female","1831819","null","","null","","","clear_screen","","","","","","","","","","","","","","","","","","","","","","","","",""
"","","","","","canvas-keyboard-response","118","296034","0.0-13.0-0.21","2d_cat_multi_stim_exp1","2022-3-28","11:25:54","25","75","3","9","10","40","30","120","4","20","[""White""]","No","Female","1831819","null","","null","","","fixation","","","","","","","","","","","","","","","","","","","","","","","","",""
"","","","","","canvas-keyboard-response","119","296543","0.0-13.0-1.21","2d_cat_multi_stim_exp1","2022-3-28","11:25:54","25","75","3","9","10","40","30","120","4","20","[""White""]","No","Female","1831819","null","","null","","","clear_screen","","","","","","","","","","","","","","","","","","","","","","","","",""
"","","","","","canvas-keyboard-response","120","297359","0.0-13.0-2.21","2d_cat_multi_stim_exp1","2022-3-28","11:25:54","25","75","3","9","10","40","30","120","4","20","[""White""]","No","Female","1831819","808","","i","learn","","learn_trial","13.3333","80","out","0","1","","","","","","","","","","","","","","","","","","","",""
"","","","","","canvas-keyboard-response","121","297868","0.0-13.0-3.21","2d_cat_multi_stim_exp1","2022-3-28","11:25:54","25","75","3","9","10","40","30","120","4","20","[""White""]","No","Female","1831819","null","","null","learn_feedback","","learn_feedback","13.3333","80","out","","","","","","","","","","","","","","","","","","","","","",""
"","","","","","canvas-keyboard-response","122","297929","0.0-13.0-4.21","2d_cat_multi_stim_exp1","2022-3-28","11:25:54","25","75","3","9","10","40","30","120","4","20","[""White""]","No","Female","1831819","null","","null","","","clear_screen","","","","","","","","","","","","","","","","","","","","","","","","",""
"","","","","","canvas-keyboard-response","123","298435","0.0-13.0-0.22","2d_cat_multi_stim_exp1","2022-3-28","11:25:54","25","75","3","9","10","40","30","120","4","20","[""White""]","No","Female","1831819","null","","null","","","fixation","","","","","","","","","","","","","","","","","","","","","","","","",""
"","","","","","canvas-keyboard-response","124","298945","0.0-13.0-1.22","2d_cat_multi_stim_exp1","2022-3-28","11:25:54","25","75","3","9","10","40","30","120","4","20","[""White""]","No","Female","1831819","null","","null","","","clear_screen","","","","","","","","","","","","","","","","","","","","","","","","",""
"","","","","","canvas-keyboard-response","125","300096","0.0-13.0-2.22","2d_cat_multi_stim_exp1","2022-3-28","11:25:54","25","75","3","9","10","40","30","120","4","20","[""White""]","No","Female","1831819","1142","","u","learn","","learn_trial","25","75","in","1","1","","","","","","","","","","","","","","","","","","","",""
"","","","","","canvas-keyboard-response","126","300603","0.0-13.0-3.22","2d_cat_multi_stim_exp1","2022-3-28","11:25:54","25","75","3","9","10","40","30","120","4","20","[""White""]","No","Female","1831819","null","","null","learn_feedback","","learn_feedback","25","75","in","","","","","","","","","","","","","","","","","","","","","",""
"","","","","","canvas-keyboard-response","127","300662","0.0-13.0-4.22","2d_cat_multi_stim_exp1","2022-3-28","11:25:54","25","75","3","9","10","40","30","120","4","20","[""White""]","No","Female","1831819","null","","null","","","clear_screen","","","","","","","","","","","","","","","","","","","","","","","","",""
"","","","","","canvas-keyboard-response","128","301170","0.0-13.0-0.23","2d_cat_multi_stim_exp1","2022-3-28","11:25:54","25","75","3","9","10","40","30","120","4","20","[""White""]","No","Female","1831819","null","","null","","","fixation","","","","","","","","","","","","","","","","","","","","","","","","",""
"","","","","","canvas-keyboard-response","129","301678","0.0-13.0-1.23","2d_cat_multi_stim_exp1","2022-3-28","11:25:54","25","75","3","9","10","40","30","120","4","20","[""White""]","No","Female","1831819","null","","null","","","clear_screen","","","","","","","","","","","","","","","","","","","","","","","","",""
"","","","","","canvas-keyboard-response","130","302728","0.0-13.0-2.23","2d_cat_multi_stim_exp1","2022-3-28","11:25:54","25","75","3","9","10","40","30","120","4","20","[""White""]","No","Female","1831819","1041","","u","learn","","learn_trial","27.8087","71.8376","in","1","1","","","","","","","","","","","","","","","","","","","",""
"","","","","","canvas-keyboard-response","131","303236","0.0-13.0-3.23","2d_cat_multi_stim_exp1","2022-3-28","11:25:54","25","75","3","9","10","40","30","120","4","20","[""White""]","No","Female","1831819","null","","null","learn_feedback","","learn_feedback","27.8087","71.8376","in","","","","","","","","","","","","","","","","","","","","","",""
"","","","","","canvas-keyboard-response","132","303295","0.0-13.0-4.23","2d_cat_multi_stim_exp1","2022-3-28","11:25:54","25","75","3","9","10","40","30","120","4","20","[""White""]","No","Female","1831819","null","","null","","","clear_screen","","","","","","","","","","","","","","","","","","","","","","","","",""
"","","","","","canvas-keyboard-response","133","303803","0.0-13.0-0.24","2d_cat_multi_stim_exp1","2022-3-28","11:25:54","25","75","3","9","10","40","30","120","4","20","[""White""]","No","Female","1831819","null","","null","","","fixation","","","","","","","","","","","","","","","","","","","","","","","","",""
"","","","","","canvas-keyboard-response","134","304311","0.0-13.0-1.24","2d_cat_multi_stim_exp1","2022-3-28","11:25:54","25","75","3","9","10","40","30","120","4","20","[""White""]","No","Female","1831819","null","","null","","","clear_screen","","","","","","","","","","","","","","","","","","","","","","","","",""
"","","","","","canvas-keyboard-response","135","305014","0.0-13.0-2.24","2d_cat_multi_stim_exp1","2022-3-28","11:25:54","25","75","3","9","10","40","30","120","4","20","[""White""]","No","Female","1831819","695","","u","learn","","learn_trial","25","75","in","1","1","","","","","","","","","","","","","","","","","","","",""
"","","","","","canvas-keyboard-response","136","305524","0.0-13.0-3.24","2d_cat_multi_stim_exp1","2022-3-28","11:25:54","25","75","3","9","10","40","30","120","4","20","[""White""]","No","Female","1831819","null","","null","learn_feedback","","learn_feedback","25","75","in","","","","","","","","","","","","","","","","","","","","","",""
"","","","","","canvas-keyboard-response","137","305582","0.0-13.0-4.24","2d_cat_multi_stim_exp1","2022-3-28","11:25:54","25","75","3","9","10","40","30","120","4","20","[""White""]","No","Female","1831819","null","","null","","","clear_screen","","","","","","","","","","","","","","","","","","","","","","","","",""
"","","","","","canvas-keyboard-response","138","306093","0.0-13.0-0.25","2d_cat_multi_stim_exp1","2022-3-28","11:25:54","25","75","3","9","10","40","30","120","4","20","[""White""]","No","Female","1831819","null","","null","","","fixation","","","","","","","","","","","","","","","","","","","","","","","","",""
"","","","","","canvas-keyboard-response","139","306600","0.0-13.0-1.25","2d_cat_multi_stim_exp1","2022-3-28","11:25:54","25","75","3","9","10","40","30","120","4","20","[""White""]","No","Female","1831819","null","","null","","","clear_screen","","","","","","","","","","","","","","","","","","","","","","","","",""
"","","","","","canvas-keyboard-response","140","307799","0.0-13.0-2.25","2d_cat_multi_stim_exp1","2022-3-28","11:25:54","25","75","3","9","10","40","30","120","4","20","[""White""]","No","Female","1831819","1190","","i","learn","","learn_trial","20","80","out","0","1","","","","","","","","","","","","","","","","","","","",""
"","","","","","canvas-keyboard-response","141","308309","0.0-13.0-3.25","2d_cat_multi_stim_exp1","2022-3-28","11:25:54","25","75","3","9","10","40","30","120","4","20","[""White""]","No","Female","1831819","null","","null","learn_feedback","","learn_feedback","20","80","out","","","","","","","","","","","","","","","","","","","","","",""
"","","","","","canvas-keyboard-response","142","308367","0.0-13.0-4.25","2d_cat_multi_stim_exp1","2022-3-28","11:25:54","25","75","3","9","10","40","30","120","4","20","[""White""]","No","Female","1831819","null","","null","","","clear_screen","","","","","","","","","","","","","","","","","","","","","","","","",""
"","","","","","canvas-keyboard-response","143","308874","0.0-13.0-0.26","2d_cat_multi_stim_exp1","2022-3-28","11:25:54","25","75","3","9","10","40","30","120","4","20","[""White""]","No","Female","1831819","null","","null","","","fixation","","","","","","","","","","","","","","","","","","","","","","","","",""
"","","","","","canvas-keyboard-response","144","309383","0.0-13.0-1.26","2d_cat_multi_stim_exp1","2022-3-28","11:25:54","25","75","3","9","10","40","30","120","4","20","[""White""]","No","Female","1831819","null","","null","","","clear_screen","","","","","","","","","","","","","","","","","","","","","","","","",""
"","","","","","canvas-keyboard-response","145","310383","0.0-13.0-2.26","2d_cat_multi_stim_exp1","2022-3-28","11:25:54","25","75","3","9","10","40","30","120","4","20","[""White""]","No","Female","1831819","991","","i","learn","","learn_trial","30","110","out","0","1","","","","","","","","","","","","","","","","","","","",""
"","","","","","canvas-keyboard-response","146","310892","0.0-13.0-3.26","2d_cat_multi_stim_exp1","2022-3-28","11:25:54","25","75","3","9","10","40","30","120","4","20","[""White""]","No","Female","1831819","null","","null","learn_feedback","","learn_feedback","30","110","out","","","","","","","","","","","","","","","","","","","","","",""
"","","","","","canvas-keyboard-response","147","310950","0.0-13.0-4.26","2d_cat_multi_stim_exp1","2022-3-28","11:25:54","25","75","3","9","10","40","30","120","4","20","[""White""]","No","Female","1831819","null","","null","","","clear_screen","","","","","","","","","","","","","","","","","","","","","","","","",""
"","","","","","canvas-keyboard-response","148","311458","0.0-13.0-0.27","2d_cat_multi_stim_exp1","2022-3-28","11:25:54","25","75","3","9","10","40","30","120","4","20","[""White""]","No","Female","1831819","null","","null","","","fixation","","","","","","","","","","","","","","","","","","","","","","","","",""
"","","","","","canvas-keyboard-response","149","311966","0.0-13.0-1.27","2d_cat_multi_stim_exp1","2022-3-28","11:25:54","25","75","3","9","10","40","30","120","4","20","[""White""]","No","Female","1831819","null","","null","","","clear_screen","","","","","","","","","","","","","","","","","","","","","","","","",""
"","","","","","canvas-keyboard-response","150","313263","0.0-13.0-2.27","2d_cat_multi_stim_exp1","2022-3-28","11:25:54","25","75","3","9","10","40","30","120","4","20","[""White""]","No","Female","1831819","1288","","u","learn","","learn_trial","26.6667","100","out","1","0","","","","","","","","","","","","","","","","","","","",""
"","","","","","canvas-keyboard-response","151","314273","0.0-13.0-3.27","2d_cat_multi_stim_exp1","2022-3-28","11:25:54","25","75","3","9","10","40","30","120","4","20","[""White""]","No","Female","1831819","null","","null","learn_feedback","","learn_feedback","26.6667","100","out","","","","","","","","","","","","","","","","","","","","","",""
"","","","","","canvas-keyboard-response","152","314331","0.0-13.0-4.27","2d_cat_multi_stim_exp1","2022-3-28","11:25:54","25","75","3","9","10","40","30","120","4","20","[""White""]","No","Female","1831819","null","","null","","","clear_screen","","","","","","","","","","","","","","","","","","","","","","","","",""
"","","","","","canvas-keyboard-response","153","314840","0.0-13.0-0.28","2d_cat_multi_stim_exp1","2022-3-28","11:25:54","25","75","3","9","10","40","30","120","4","20","[""White""]","No","Female","1831819","null","","null","","","fixation","","","","","","","","","","","","","","","","","","","","","","","","",""
"","","","","","canvas-keyboard-response","154","315353","0.0-13.0-1.28","2d_cat_multi_stim_exp1","2022-3-28","11:25:54","25","75","3","9","10","40","30","120","4","20","[""White""]","No","Female","1831819","null","","null","","","clear_screen","","","","","","","","","","","","","","","","","","","","","","","","",""
"","","","","","canvas-keyboard-response","155","316271","0.0-13.0-2.28","2d_cat_multi_stim_exp1","2022-3-28","11:25:54","25","75","3","9","10","40","30","120","4","20","[""White""]","No","Female","1831819","908","","u","learn","","learn_trial","22.2971","78.905","in","1","1","","","","","","","","","","","","","","","","","","","",""
"","","","","","canvas-keyboard-response","156","316779","0.0-13.0-3.28","2d_cat_multi_stim_exp1","2022-3-28","11:25:54","25","75","3","9","10","40","30","120","4","20","[""White""]","No","Female","1831819","null","","null","learn_feedback","","learn_feedback","22.2971","78.905","in","","","","","","","","","","","","","","","","","","","","","",""
"","","","","","canvas-keyboard-response","157","316840","0.0-13.0-4.28","2d_cat_multi_stim_exp1","2022-3-28","11:25:54","25","75","3","9","10","40","30","120","4","20","[""White""]","No","Female","1831819","null","","null","","","clear_screen","","","","","","","","","","","","","","","","","","","","","","","","",""
"","","","","","canvas-keyboard-response","158","317348","0.0-13.0-0.29","2d_cat_multi_stim_exp1","2022-3-28","11:25:54","25","75","3","9","10","40","30","120","4","20","[""White""]","No","Female","1831819","null","","null","","","fixation","","","","","","","","","","","","","","","","","","","","","","","","",""
"","","","","","canvas-keyboard-response","159","317858","0.0-13.0-1.29","2d_cat_multi_stim_exp1","2022-3-28","11:25:54","25","75","3","9","10","40","30","120","4","20","[""White""]","No","Female","1831819","null","","null","","","clear_screen","","","","","","","","","","","","","","","","","","","","","","","","",""
"","","","","","canvas-keyboard-response","160","318510","0.0-13.0-2.29","2d_cat_multi_stim_exp1","2022-3-28","11:25:54","25","75","3","9","10","40","30","120","4","20","[""White""]","No","Female","1831819","644","","u","learn","","learn_trial","25","75","in","1","1","","","","","","","","","","","","","","","","","","","",""
"","","","","","canvas-keyboard-response","161","319020","0.0-13.0-3.29","2d_cat_multi_stim_exp1","2022-3-28","11:25:54","25","75","3","9","10","40","30","120","4","20","[""White""]","No","Female","1831819","null","","null","learn_feedback","","learn_feedback","25","75","in","","","","","","","","","","","","","","","","","","","","","",""
"","","","","","canvas-keyboard-response","162","319079","0.0-13.0-4.29","2d_cat_multi_stim_exp1","2022-3-28","11:25:54","25","75","3","9","10","40","30","120","4","20","[""White""]","No","Female","1831819","null","","null","","","clear_screen","","","","","","","","","","","","","","","","","","","","","","","","",""
"","","","","","canvas-keyboard-response","163","319588","0.0-13.0-0.30","2d_cat_multi_stim_exp1","2022-3-28","11:25:54","25","75","3","9","10","40","30","120","4","20","[""White""]","No","Female","1831819","null","","null","","","fixation","","","","","","","","","","","","","","","","","","","","","","","","",""
"","","","","","canvas-keyboard-response","164","320097","0.0-13.0-1.30","2d_cat_multi_stim_exp1","2022-3-28","11:25:54","25","75","3","9","10","40","30","120","4","20","[""White""]","No","Female","1831819","null","","null","","","clear_screen","","","","","","","","","","","","","","","","","","","","","","","","",""
"","","","","","canvas-keyboard-response","165","320751","0.0-13.0-2.30","2d_cat_multi_stim_exp1","2022-3-28","11:25:54","25","75","3","9","10","40","30","120","4","20","[""White""]","No","Female","1831819","645","","i","learn","","learn_trial","25.4027","83.9185","in","0","0","","","","","","","","","","","","","","","","","","","",""
"","","","","","canvas-keyboard-response","166","321760","0.0-13.0-3.30","2d_cat_multi_stim_exp1","2022-3-28","11:25:54","25","75","3","9","10","40","30","120","4","20","[""White""]","No","Female","1831819","null","","null","learn_feedback","","learn_feedback","25.4027","83.9185","in","","","","","","","","","","","","","","","","","","","","","",""
"","","","","","canvas-keyboard-response","167","321819","0.0-13.0-4.30","2d_cat_multi_stim_exp1","2022-3-28","11:25:54","25","75","3","9","10","40","30","120","4","20","[""White""]","No","Female","1831819","null","","null","","","clear_screen","","","","","","","","","","","","","","","","","","","","","","","","",""
"","","","","","canvas-keyboard-response","168","322328","0.0-13.0-0.31","2d_cat_multi_stim_exp1","2022-3-28","11:25:54","25","75","3","9","10","40","30","120","4","20","[""White""]","No","Female","1831819","null","","null","","","fixation","","","","","","","","","","","","","","","","","","","","","","","","",""
"","","","","","canvas-keyboard-response","169","322836","0.0-13.0-1.31","2d_cat_multi_stim_exp1","2022-3-28","11:25:54","25","75","3","9","10","40","30","120","4","20","[""White""]","No","Female","1831819","null","","null","","","clear_screen","","","","","","","","","","","","","","","","","","","","","","","","",""
"","","","","","canvas-keyboard-response","170","323815","0.0-13.0-2.31","2d_cat_multi_stim_exp1","2022-3-28","11:25:54","25","75","3","9","10","40","30","120","4","20","[""White""]","No","Female","1831819","970","","i","learn","","learn_trial","10","90","out","0","1","","","","","","","","","","","","","","","","","","","",""
"","","","","","canvas-keyboard-response","171","324324","0.0-13.0-3.31","2d_cat_multi_stim_exp1","2022-3-28","11:25:54","25","75","3","9","10","40","30","120","4","20","[""White""]","No","Female","1831819","null","","null","learn_feedback","","learn_feedback","10","90","out","","","","","","","","","","","","","","","","","","","","","",""
"","","","","","canvas-keyboard-response","172","324382","0.0-13.0-4.31","2d_cat_multi_stim_exp1","2022-3-28","11:25:54","25","75","3","9","10","40","30","120","4","20","[""White""]","No","Female","1831819","null","","null","","","clear_screen","","","","","","","","","","","","","","","","","","","","","","","","",""
"","","","","","canvas-keyboard-response","173","324890","0.0-13.0-0.32","2d_cat_multi_stim_exp1","2022-3-28","11:25:54","25","75","3","9","10","40","30","120","4","20","[""White""]","No","Female","1831819","null","","null","","","fixation","","","","","","","","","","","","","","","","","","","","","","","","",""
"","","","","","canvas-keyboard-response","174","325399","0.0-13.0-1.32","2d_cat_multi_stim_exp1","2022-3-28","11:25:54","25","75","3","9","10","40","30","120","4","20","[""White""]","No","Female","1831819","null","","null","","","clear_screen","","","","","","","","","","","","","","","","","","","","","","","","",""
"","","","","","canvas-keyboard-response","175","326118","0.0-13.0-2.32","2d_cat_multi_stim_exp1","2022-3-28","11:25:54","25","75","3","9","10","40","30","120","4","20","[""White""]","No","Female","1831819","711","","i","learn","","learn_trial","10","100","out","0","1","","","","","","","","","","","","","","","","","","","",""
"","","","","","canvas-keyboard-response","176","326628","0.0-13.0-3.32","2d_cat_multi_stim_exp1","2022-3-28","11:25:54","25","75","3","9","10","40","30","120","4","20","[""White""]","No","Female","1831819","null","","null","learn_feedback","","learn_feedback","10","100","out","","","","","","","","","","","","","","","","","","","","","",""
"","","","","","canvas-keyboard-response","177","326686","0.0-13.0-4.32","2d_cat_multi_stim_exp1","2022-3-28","11:25:54","25","75","3","9","10","40","30","120","4","20","[""White""]","No","Female","1831819","null","","null","","","clear_screen","","","","","","","","","","","","","","","","","","","","","","","","",""
"","","","","","canvas-keyboard-response","178","327193","0.0-13.0-0.33","2d_cat_multi_stim_exp1","2022-3-28","11:25:54","25","75","3","9","10","40","30","120","4","20","[""White""]","No","Female","1831819","null","","null","","","fixation","","","","","","","","","","","","","","","","","","","","","","","","",""
"","","","","","canvas-keyboard-response","179","327702","0.0-13.0-1.33","2d_cat_multi_stim_exp1","2022-3-28","11:25:54","25","75","3","9","10","40","30","120","4","20","[""White""]","No","Female","1831819","null","","null","","","clear_screen","","","","","","","","","","","","","","","","","","","","","","","","",""
"","","","","","canvas-keyboard-response","180","328462","0.0-13.0-2.33","2d_cat_multi_stim_exp1","2022-3-28","11:25:54","25","75","3","9","10","40","30","120","4","20","[""White""]","No","Female","1831819","751","","i","learn","","learn_trial","29.2426","62.2721","in","0","0","","","","","","","","","","","","","","","","","","","",""
"","","","","","canvas-keyboard-response","181","329472","0.0-13.0-3.33","2d_cat_multi_stim_exp1","2022-3-28","11:25:54","25","75","3","9","10","40","30","120","4","20","[""White""]","No","Female","1831819","null","","null","learn_feedback","","learn_feedback","29.2426","62.2721","in","","","","","","","","","","","","","","","","","","","","","",""
"","","","","","canvas-keyboard-response","182","329530","0.0-13.0-4.33","2d_cat_multi_stim_exp1","2022-3-28","11:25:54","25","75","3","9","10","40","30","120","4","20","[""White""]","No","Female","1831819","null","","null","","","clear_screen","","","","","","","","","","","","","","","","","","","","","","","","",""
"","","","","","canvas-keyboard-response","183","330038","0.0-13.0-0.34","2d_cat_multi_stim_exp1","2022-3-28","11:25:54","25","75","3","9","10","40","30","120","4","20","[""White""]","No","Female","1831819","null","","null","","","fixation","","","","","","","","","","","","","","","","","","","","","","","","",""
"","","","","","canvas-keyboard-response","184","330547","0.0-13.0-1.34","2d_cat_multi_stim_exp1","2022-3-28","11:25:54","25","75","3","9","10","40","30","120","4","20","[""White""]","No","Female","1831819","null","","null","","","clear_screen","","","","","","","","","","","","","","","","","","","","","","","","",""
"","","","","","canvas-keyboard-response","185","332072","0.0-13.0-2.34","2d_cat_multi_stim_exp1","2022-3-28","11:25:54","25","75","3","9","10","40","30","120","4","20","[""White""]","No","Female","1831819","1516","","i","learn","","learn_trial","33.3333","80","out","0","1","","","","","","","","","","","","","","","","","","","",""
"","","","","","canvas-keyboard-response","186","332580","0.0-13.0-3.34","2d_cat_multi_stim_exp1","2022-3-28","11:25:54","25","75","3","9","10","40","30","120","4","20","[""White""]","No","Female","1831819","null","","null","learn_feedback","","learn_feedback","33.3333","80","out","","","","","","","","","","","","","","","","","","","","","",""
"","","","","","canvas-keyboard-response","187","332639","0.0-13.0-4.34","2d_cat_multi_stim_exp1","2022-3-28","11:25:54","25","75","3","9","10","40","30","120","4","20","[""White""]","No","Female","1831819","null","","null","","","clear_screen","","","","","","","","","","","","","","","","","","","","","","","","",""
"","","","","","canvas-keyboard-response","188","333147","0.0-13.0-0.35","2d_cat_multi_stim_exp1","2022-3-28","11:25:54","25","75","3","9","10","40","30","120","4","20","[""White""]","No","Female","1831819","null","","null","","","fixation","","","","","","","","","","","","","","","","","","","","","","","","",""
"","","","","","canvas-keyboard-response","189","333655","0.0-13.0-1.35","2d_cat_multi_stim_exp1","2022-3-28","11:25:54","25","75","3","9","10","40","30","120","4","20","[""White""]","No","Female","1831819","null","","null","","","clear_screen","","","","","","","","","","","","","","","","","","","","","","","","",""
"","","","","","canvas-keyboard-response","190","334415","0.0-13.0-2.35","2d_cat_multi_stim_exp1","2022-3-28","11:25:54","25","75","3","9","10","40","30","120","4","20","[""White""]","No","Female","1831819","751","","i","learn","","learn_trial","22.1081","77.3943","in","0","0","","","","","","","","","","","","","","","","","","","",""
"","","","","","canvas-keyboard-response","191","335424","0.0-13.0-3.35","2d_cat_multi_stim_exp1","2022-3-28","11:25:54","25","75","3","9","10","40","30","120","4","20","[""White""]","No","Female","1831819","null","","null","learn_feedback","","learn_feedback","22.1081","77.3943","in","","","","","","","","","","","","","","","","","","","","","",""
"","","","","","canvas-keyboard-response","192","335482","0.0-13.0-4.35","2d_cat_multi_stim_exp1","2022-3-28","11:25:54","25","75","3","9","10","40","30","120","4","20","[""White""]","No","Female","1831819","null","","null","","","clear_screen","","","","","","","","","","","","","","","","","","","","","","","","",""
"","","","","","canvas-keyboard-response","193","335990","0.0-13.0-0.36","2d_cat_multi_stim_exp1","2022-3-28","11:25:54","25","75","3","9","10","40","30","120","4","20","[""White""]","No","Female","1831819","null","","null","","","fixation","","","","","","","","","","","","","","","","","","","","","","","","",""
"","","","","","canvas-keyboard-response","194","336498","0.0-13.0-1.36","2d_cat_multi_stim_exp1","2022-3-28","11:25:54","25","75","3","9","10","40","30","120","4","20","[""White""]","No","Female","1831819","null","","null","","","clear_screen","","","","","","","","","","","","","","","","","","","","","","","","",""
"","","","","","canvas-keyboard-response","195","337343","0.0-13.0-2.36","2d_cat_multi_stim_exp1","2022-3-28","11:25:54","25","75","3","9","10","40","30","120","4","20","[""White""]","No","Female","1831819","836","","i","learn","","learn_trial","24.8654","66.0091","in","0","0","","","","","","","","","","","","","","","","","","","",""
"","","","","","canvas-keyboard-response","196","338352","0.0-13.0-3.36","2d_cat_multi_stim_exp1","2022-3-28","11:25:54","25","75","3","9","10","40","30","120","4","20","[""White""]","No","Female","1831819","null","","null","learn_feedback","","learn_feedback","24.8654","66.0091","in","","","","","","","","","","","","","","","","","","","","","",""
"","","","","","canvas-keyboard-response","197","338410","0.0-13.0-4.36","2d_cat_multi_stim_exp1","2022-3-28","11:25:54","25","75","3","9","10","40","30","120","4","20","[""White""]","No","Female","1831819","null","","null","","","clear_screen","","","","","","","","","","","","","","","","","","","","","","","","",""
"","","","","","canvas-keyboard-response","198","338918","0.0-13.0-0.37","2d_cat_multi_stim_exp1","2022-3-28","11:25:54","25","75","3","9","10","40","30","120","4","20","[""White""]","No","Female","1831819","null","","null","","","fixation","","","","","","","","","","","","","","","","","","","","","","","","",""
"","","","","","canvas-keyboard-response","199","339426","0.0-13.0-1.37","2d_cat_multi_stim_exp1","2022-3-28","11:25:54","25","75","3","9","10","40","30","120","4","20","[""White""]","No","Female","1831819","null","","null","","","clear_screen","","","","","","","","","","","","","","","","","","","","","","","","",""
"","","","","","canvas-keyboard-response","200","340263","0.0-13.0-2.37","2d_cat_multi_stim_exp1","2022-3-28","11:25:54","25","75","3","9","10","40","30","120","4","20","[""White""]","No","Female","1831819","827","","i","learn","","learn_trial","16.6667","30","out","0","1","","","","","","","","","","","","","","","","","","","",""
"","","","","","canvas-keyboard-response","201","340771","0.0-13.0-3.37","2d_cat_multi_stim_exp1","2022-3-28","11:25:54","25","75","3","9","10","40","30","120","4","20","[""White""]","No","Female","1831819","null","","null","learn_feedback","","learn_feedback","16.6667","30","out","","","","","","","","","","","","","","","","","","","","","",""
"","","","","","canvas-keyboard-response","202","340829","0.0-13.0-4.37","2d_cat_multi_stim_exp1","2022-3-28","11:25:54","25","75","3","9","10","40","30","120","4","20","[""White""]","No","Female","1831819","null","","null","","","clear_screen","","","","","","","","","","","","","","","","","","","","","","","","",""
"","","","","","canvas-keyboard-response","203","341337","0.0-13.0-0.38","2d_cat_multi_stim_exp1","2022-3-28","11:25:54","25","75","3","9","10","40","30","120","4","20","[""White""]","No","Female","1831819","null","","null","","","fixation","","","","","","","","","","","","","","","","","","","","","","","","",""
"","","","","","canvas-keyboard-response","204","341845","0.0-13.0-1.38","2d_cat_multi_stim_exp1","2022-3-28","11:25:54","25","75","3","9","10","40","30","120","4","20","[""White""]","No","Female","1831819","null","","null","","","clear_screen","","","","","","","","","","","","","","","","","","","","","","","","",""
"","","","","","canvas-keyboard-response","205","342847","0.0-13.0-2.38","2d_cat_multi_stim_exp1","2022-3-28","11:25:54","25","75","3","9","10","40","30","120","4","20","[""White""]","No","Female","1831819","992","","i","learn","","learn_trial","26.6667","120","out","0","1","","","","","","","","","","","","","","","","","","","",""
"","","","","","canvas-keyboard-response","206","343356","0.0-13.0-3.38","2d_cat_multi_stim_exp1","2022-3-28","11:25:54","25","75","3","9","10","40","30","120","4","20","[""White""]","No","Female","1831819","null","","null","learn_feedback","","learn_feedback","26.6667","120","out","","","","","","","","","","","","","","","","","","","","","",""
"","","","","","canvas-keyboard-response","207","343414","0.0-13.0-4.38","2d_cat_multi_stim_exp1","2022-3-28","11:25:54","25","75","3","9","10","40","30","120","4","20","[""White""]","No","Female","1831819","null","","null","","","clear_screen","","","","","","","","","","","","","","","","","","","","","","","","",""
"","","","","","canvas-keyboard-response","208","343923","0.0-13.0-0.39","2d_cat_multi_stim_exp1","2022-3-28","11:25:54","25","75","3","9","10","40","30","120","4","20","[""White""]","No","Female","1831819","null","","null","","","fixation","","","","","","","","","","","","","","","","","","","","","","","","",""
"","","","","","canvas-keyboard-response","209","344431","0.0-13.0-1.39","2d_cat_multi_stim_exp1","2022-3-28","11:25:54","25","75","3","9","10","40","30","120","4","20","[""White""]","No","Female","1831819","null","","null","","","clear_screen","","","","","","","","","","","","","","","","","","","","","","","","",""
"","","","","","canvas-keyboard-response","210","345113","0.0-13.0-2.39","2d_cat_multi_stim_exp1","2022-3-28","11:25:54","25","75","3","9","10","40","30","120","4","20","[""White""]","No","Female","1831819","671","","u","learn","","learn_trial","25","75","in","1","1","","","","","","","","","","","","","","","","","","","",""
"","","","","","canvas-keyboard-response","211","345623","0.0-13.0-3.39","2d_cat_multi_stim_exp1","2022-3-28","11:25:54","25","75","3","9","10","40","30","120","4","20","[""White""]","No","Female","1831819","null","","null","learn_feedback","","learn_feedback","25","75","in","","","","","","","","","","","","","","","","","","","","","",""
"","","","","","canvas-keyboard-response","212","345684","0.0-13.0-4.39","2d_cat_multi_stim_exp1","2022-3-28","11:25:54","25","75","3","9","10","40","30","120","4","20","[""White""]","No","Female","1831819","null","","null","","","clear_screen","","","","","","","","","","","","","","","","","","","","","","","","",""
"","","","","","canvas-keyboard-response","213","346194","0.0-13.0-0.40","2d_cat_multi_stim_exp1","2022-3-28","11:25:54","25","75","3","9","10","40","30","120","4","20","[""White""]","No","Female","1831819","null","","null","","","fixation","","","","","","","","","","","","","","","","","","","","","","","","",""
"","","","","","canvas-keyboard-response","214","346704","0.0-13.0-1.40","2d_cat_multi_stim_exp1","2022-3-28","11:25:54","25","75","3","9","10","40","30","120","4","20","[""White""]","No","Female","1831819","null","","null","","","clear_screen","","","","","","","","","","","","","","","","","","","","","","","","",""
"","","","","","canvas-keyboard-response","215","347487","0.0-13.0-2.40","2d_cat_multi_stim_exp1","2022-3-28","11:25:54","25","75","3","9","10","40","30","120","4","20","[""White""]","No","Female","1831819","774","","i","learn","","learn_trial","36.6667","80","out","0","1","","","","","","","","","","","","","","","","","","","",""
"","","","","","canvas-keyboard-response","216","347996","0.0-13.0-3.40","2d_cat_multi_stim_exp1","2022-3-28","11:25:54","25","75","3","9","10","40","30","120","4","20","[""White""]","No","Female","1831819","null","","null","learn_feedback","","learn_feedback","36.6667","80","out","","","","","","","","","","","","","","","","","","","","","",""
"","","","","","canvas-keyboard-response","217","348055","0.0-13.0-4.40","2d_cat_multi_stim_exp1","2022-3-28","11:25:54","25","75","3","9","10","40","30","120","4","20","[""White""]","No","Female","1831819","null","","null","","","clear_screen","","","","","","","","","","","","","","","","","","","","","","","","",""
"","","","","","canvas-keyboard-response","218","348564","0.0-13.0-0.41","2d_cat_multi_stim_exp1","2022-3-28","11:25:54","25","75","3","9","10","40","30","120","4","20","[""White""]","No","Female","1831819","null","","null","","","fixation","","","","","","","","","","","","","","","","","","","","","","","","",""
"","","","","","canvas-keyboard-response","219","349073","0.0-13.0-1.41","2d_cat_multi_stim_exp1","2022-3-28","11:25:54","25","75","3","9","10","40","30","120","4","20","[""White""]","No","Female","1831819","null","","null","","","clear_screen","","","","","","","","","","","","","","","","","","","","","","","","",""
"","","","","","canvas-keyboard-response","220","349903","0.0-13.0-2.41","2d_cat_multi_stim_exp1","2022-3-28","11:25:54","25","75","3","9","10","40","30","120","4","20","[""White""]","No","Female","1831819","821","","u","learn","","learn_trial","22.0121","75.8068","in","1","1","","","","","","","","","","","","","","","","","","","",""
"","","","","","canvas-keyboard-response","221","350413","0.0-13.0-3.41","2d_cat_multi_stim_exp1","2022-3-28","11:25:54","25","75","3","9","10","40","30","120","4","20","[""White""]","No","Female","1831819","null","","null","learn_feedback","","learn_feedback","22.0121","75.8068","in","","","","","","","","","","","","","","","","","","","","","",""
"","","","","","canvas-keyboard-response","222","350472","0.0-13.0-4.41","2d_cat_multi_stim_exp1","2022-3-28","11:25:54","25","75","3","9","10","40","30","120","4","20","[""White""]","No","Female","1831819","null","","null","","","clear_screen","","","","","","","","","","","","","","","","","","","","","","","","",""
"","","","","","canvas-keyboard-response","223","350981","0.0-13.0-0.42","2d_cat_multi_stim_exp1","2022-3-28","11:25:54","25","75","3","9","10","40","30","120","4","20","[""White""]","No","Female","1831819","null","","null","","","fixation","","","","","","","","","","","","","","","","","","","","","","","","",""
"","","","","","canvas-keyboard-response","224","351489","0.0-13.0-1.42","2d_cat_multi_stim_exp1","2022-3-28","11:25:54","25","75","3","9","10","40","30","120","4","20","[""White""]","No","Female","1831819","null","","null","","","clear_screen","","","","","","","","","","","","","","","","","","","","","","","","",""
"","","","","","canvas-keyboard-response","225","352182","0.0-13.0-2.42","2d_cat_multi_stim_exp1","2022-3-28","11:25:54","25","75","3","9","10","40","30","120","4","20","[""White""]","No","Female","1831819","684","","i","learn","","learn_trial","25.9271","66.4405","in","0","0","","","","","","","","","","","","","","","","","","","",""
"","","","","","canvas-keyboard-response","226","353195","0.0-13.0-3.42","2d_cat_multi_stim_exp1","2022-3-28","11:25:54","25","75","3","9","10","40","30","120","4","20","[""White""]","No","Female","1831819","null","","null","learn_feedback","","learn_feedback","25.9271","66.4405","in","","","","","","","","","","","","","","","","","","","","","",""
"","","","","","canvas-keyboard-response","227","353253","0.0-13.0-4.42","2d_cat_multi_stim_exp1","2022-3-28","11:25:54","25","75","3","9","10","40","30","120","4","20","[""White""]","No","Female","1831819","null","","null","","","clear_screen","","","","","","","","","","","","","","","","","","","","","","","","",""
"","","","","","canvas-keyboard-response","228","353762","0.0-13.0-0.43","2d_cat_multi_stim_exp1","2022-3-28","11:25:54","25","75","3","9","10","40","30","120","4","20","[""White""]","No","Female","1831819","null","","null","","","fixation","","","","","","","","","","","","","","","","","","","","","","","","",""
"","","","","","canvas-keyboard-response","229","354271","0.0-13.0-1.43","2d_cat_multi_stim_exp1","2022-3-28","11:25:54","25","75","3","9","10","40","30","120","4","20","[""White""]","No","Female","1831819","null","","null","","","clear_screen","","","","","","","","","","","","","","","","","","","","","","","","",""
"","","","","","canvas-keyboard-response","230","355143","0.0-13.0-2.43","2d_cat_multi_stim_exp1","2022-3-28","11:25:54","25","75","3","9","10","40","30","120","4","20","[""White""]","No","Female","1831819","863","","u","learn","","learn_trial","25","75","in","1","1","","","","","","","","","","","","","","","","","","","",""
"","","","","","canvas-keyboard-response","231","355652","0.0-13.0-3.43","2d_cat_multi_stim_exp1","2022-3-28","11:25:54","25","75","3","9","10","40","30","120","4","20","[""White""]","No","Female","1831819","null","","null","learn_feedback","","learn_feedback","25","75","in","","","","","","","","","","","","","","","","","","","","","",""
"","","","","","canvas-keyboard-response","232","355711","0.0-13.0-4.43","2d_cat_multi_stim_exp1","2022-3-28","11:25:54","25","75","3","9","10","40","30","120","4","20","[""White""]","No","Female","1831819","null","","null","","","clear_screen","","","","","","","","","","","","","","","","","","","","","","","","",""
"","","","","","canvas-keyboard-response","233","356219","0.0-13.0-0.44","2d_cat_multi_stim_exp1","2022-3-28","11:25:54","25","75","3","9","10","40","30","120","4","20","[""White""]","No","Female","1831819","null","","null","","","fixation","","","","","","","","","","","","","","","","","","","","","","","","",""
"","","","","","canvas-keyboard-response","234","356727","0.0-13.0-1.44","2d_cat_multi_stim_exp1","2022-3-28","11:25:54","25","75","3","9","10","40","30","120","4","20","[""White""]","No","Female","1831819","null","","null","","","clear_screen","","","","","","","","","","","","","","","","","","","","","","","","",""
"","","","","","canvas-keyboard-response","235","357422","0.0-13.0-2.44","2d_cat_multi_stim_exp1","2022-3-28","11:25:54","25","75","3","9","10","40","30","120","4","20","[""White""]","No","Female","1831819","686","","u","learn","","learn_trial","25","75","in","1","1","","","","","","","","","","","","","","","","","","","",""
"","","","","","canvas-keyboard-response","236","357931","0.0-13.0-3.44","2d_cat_multi_stim_exp1","2022-3-28","11:25:54","25","75","3","9","10","40","30","120","4","20","[""White""]","No","Female","1831819","null","","null","learn_feedback","","learn_feedback","25","75","in","","","","","","","","","","","","","","","","","","","","","",""
"","","","","","canvas-keyboard-response","237","357989","0.0-13.0-4.44","2d_cat_multi_stim_exp1","2022-3-28","11:25:54","25","75","3","9","10","40","30","120","4","20","[""White""]","No","Female","1831819","null","","null","","","clear_screen","","","","","","","","","","","","","","","","","","","","","","","","",""
"","","","","","canvas-keyboard-response","238","358498","0.0-13.0-0.45","2d_cat_multi_stim_exp1","2022-3-28","11:25:54","25","75","3","9","10","40","30","120","4","20","[""White""]","No","Female","1831819","null","","null","","","fixation","","","","","","","","","","","","","","","","","","","","","","","","",""
"","","","","","canvas-keyboard-response","239","359007","0.0-13.0-1.45","2d_cat_multi_stim_exp1","2022-3-28","11:25:54","25","75","3","9","10","40","30","120","4","20","[""White""]","No","Female","1831819","null","","null","","","clear_screen","","","","","","","","","","","","","","","","","","","","","","","","",""
"","","","","","canvas-keyboard-response","240","359839","0.0-13.0-2.45","2d_cat_multi_stim_exp1","2022-3-28","11:25:54","25","75","3","9","10","40","30","120","4","20","[""White""]","No","Female","1831819","822","","u","learn","","learn_trial","25","75","in","1","1","","","","","","","","","","","","","","","","","","","",""
"","","","","","canvas-keyboard-response","241","360350","0.0-13.0-3.45","2d_cat_multi_stim_exp1","2022-3-28","11:25:54","25","75","3","9","10","40","30","120","4","20","[""White""]","No","Female","1831819","null","","null","learn_feedback","","learn_feedback","25","75","in","","","","","","","","","","","","","","","","","","","","","",""
"","","","","","canvas-keyboard-response","242","360408","0.0-13.0-4.45","2d_cat_multi_stim_exp1","2022-3-28","11:25:54","25","75","3","9","10","40","30","120","4","20","[""White""]","No","Female","1831819","null","","null","","","clear_screen","","","","","","","","","","","","","","","","","","","","","","","","",""
"","","","","","canvas-keyboard-response","243","360916","0.0-13.0-0.46","2d_cat_multi_stim_exp1","2022-3-28","11:25:54","25","75","3","9","10","40","30","120","4","20","[""White""]","No","Female","1831819","null","","null","","","fixation","","","","","","","","","","","","","","","","","","","","","","","","",""
"","","","","","canvas-keyboard-response","244","361425","0.0-13.0-1.46","2d_cat_multi_stim_exp1","2022-3-28","11:25:54","25","75","3","9","10","40","30","120","4","20","[""White""]","No","Female","1831819","null","","null","","","clear_screen","","","","","","","","","","","","","","","","","","","","","","","","",""
"","","","","","canvas-keyboard-response","245","362095","0.0-13.0-2.46","2d_cat_multi_stim_exp1","2022-3-28","11:25:54","25","75","3","9","10","40","30","120","4","20","[""White""]","No","Female","1831819","661","","u","learn","","learn_trial","25","75","in","1","1","","","","","","","","","","","","","","","","","","","",""
"","","","","","canvas-keyboard-response","246","362604","0.0-13.0-3.46","2d_cat_multi_stim_exp1","2022-3-28","11:25:54","25","75","3","9","10","40","30","120","4","20","[""White""]","No","Female","1831819","null","","null","learn_feedback","","learn_feedback","25","75","in","","","","","","","","","","","","","","","","","","","","","",""
"","","","","","canvas-keyboard-response","247","362662","0.0-13.0-4.46","2d_cat_multi_stim_exp1","2022-3-28","11:25:54","25","75","3","9","10","40","30","120","4","20","[""White""]","No","Female","1831819","null","","null","","","clear_screen","","","","","","","","","","","","","","","","","","","","","","","","",""
"","","","","","canvas-keyboard-response","248","363171","0.0-13.0-0.47","2d_cat_multi_stim_exp1","2022-3-28","11:25:54","25","75","3","9","10","40","30","120","4","20","[""White""]","No","Female","1831819","null","","null","","","fixation","","","","","","","","","","","","","","","","","","","","","","","","",""
"","","","","","canvas-keyboard-response","249","363679","0.0-13.0-1.47","2d_cat_multi_stim_exp1","2022-3-28","11:25:54","25","75","3","9","10","40","30","120","4","20","[""White""]","No","Female","1831819","null","","null","","","clear_screen","","","","","","","","","","","","","","","","","","","","","","","","",""
"","","","","","canvas-keyboard-response","250","364439","0.0-13.0-2.47","2d_cat_multi_stim_exp1","2022-3-28","11:25:54","25","75","3","9","10","40","30","120","4","20","[""White""]","No","Female","1831819","751","","u","learn","","learn_trial","25","75","in","1","1","","","","","","","","","","","","","","","","","","","",""
"","","","","","canvas-keyboard-response","251","364948","0.0-13.0-3.47","2d_cat_multi_stim_exp1","2022-3-28","11:25:54","25","75","3","9","10","40","30","120","4","20","[""White""]","No","Female","1831819","null","","null","learn_feedback","","learn_feedback","25","75","in","","","","","","","","","","","","","","","","","","","","","",""
"","","","","","canvas-keyboard-response","252","365006","0.0-13.0-4.47","2d_cat_multi_stim_exp1","2022-3-28","11:25:54","25","75","3","9","10","40","30","120","4","20","[""White""]","No","Female","1831819","null","","null","","","clear_screen","","","","","","","","","","","","","","","","","","","","","","","","",""
"","","","","","canvas-keyboard-response","253","365513","0.0-13.0-0.48","2d_cat_multi_stim_exp1","2022-3-28","11:25:54","25","75","3","9","10","40","30","120","4","20","[""White""]","No","Female","1831819","null","","null","","","fixation","","","","","","","","","","","","","","","","","","","","","","","","",""
"","","","","","canvas-keyboard-response","254","366021","0.0-13.0-1.48","2d_cat_multi_stim_exp1","2022-3-28","11:25:54","25","75","3","9","10","40","30","120","4","20","[""White""]","No","Female","1831819","null","","null","","","clear_screen","","","","","","","","","","","","","","","","","","","","","","","","",""
"","","","","","canvas-keyboard-response","255","366751","0.0-13.0-2.48","2d_cat_multi_stim_exp1","2022-3-28","11:25:54","25","75","3","9","10","40","30","120","4","20","[""White""]","No","Female","1831819","720","","i","learn","","learn_trial","13.3333","70","out","0","1","","","","","","","","","","","","","","","","","","","",""
"","","","","","canvas-keyboard-response","256","367260","0.0-13.0-3.48","2d_cat_multi_stim_exp1","2022-3-28","11:25:54","25","75","3","9","10","40","30","120","4","20","[""White""]","No","Female","1831819","null","","null","learn_feedback","","learn_feedback","13.3333","70","out","","","","","","","","","","","","","","","","","","","","","",""
"","","","","","canvas-keyboard-response","257","367319","0.0-13.0-4.48","2d_cat_multi_stim_exp1","2022-3-28","11:25:54","25","75","3","9","10","40","30","120","4","20","[""White""]","No","Female","1831819","null","","null","","","clear_screen","","","","","","","","","","","","","","","","","","","","","","","","",""
"","","","","","canvas-keyboard-response","258","367827","0.0-13.0-0.49","2d_cat_multi_stim_exp1","2022-3-28","11:25:54","25","75","3","9","10","40","30","120","4","20","[""White""]","No","Female","1831819","null","","null","","","fixation","","","","","","","","","","","","","","","","","","","","","","","","",""
"","","","","","canvas-keyboard-response","259","368336","0.0-13.0-1.49","2d_cat_multi_stim_exp1","2022-3-28","11:25:54","25","75","3","9","10","40","30","120","4","20","[""White""]","No","Female","1831819","null","","null","","","clear_screen","","","","","","","","","","","","","","","","","","","","","","","","",""
"","","","","","canvas-keyboard-response","260","369191","0.0-13.0-2.49","2d_cat_multi_stim_exp1","2022-3-28","11:25:54","25","75","3","9","10","40","30","120","4","20","[""White""]","No","Female","1831819","847","","u","learn","","learn_trial","23.3473","67.4888","in","1","1","","","","","","","","","","","","","","","","","","","",""
"","","","","","canvas-keyboard-response","261","369700","0.0-13.0-3.49","2d_cat_multi_stim_exp1","2022-3-28","11:25:54","25","75","3","9","10","40","30","120","4","20","[""White""]","No","Female","1831819","null","","null","learn_feedback","","learn_feedback","23.3473","67.4888","in","","","","","","","","","","","","","","","","","","","","","",""
"","","","","","canvas-keyboard-response","262","369757","0.0-13.0-4.49","2d_cat_multi_stim_exp1","2022-3-28","11:25:54","25","75","3","9","10","40","30","120","4","20","[""White""]","No","Female","1831819","null","","null","","","clear_screen","","","","","","","","","","","","","","","","","","","","","","","","",""
"","","","","","canvas-keyboard-response","263","370265","0.0-13.0-0.50","2d_cat_multi_stim_exp1","2022-3-28","11:25:54","25","75","3","9","10","40","30","120","4","20","[""White""]","No","Female","1831819","null","","null","","","fixation","","","","","","","","","","","","","","","","","","","","","","","","",""
"","","","","","canvas-keyboard-response","264","370775","0.0-13.0-1.50","2d_cat_multi_stim_exp1","2022-3-28","11:25:54","25","75","3","9","10","40","30","120","4","20","[""White""]","No","Female","1831819","null","","null","","","clear_screen","","","","","","","","","","","","","","","","","","","","","","","","",""
"","","","","","canvas-keyboard-response","265","372566","0.0-13.0-2.50","2d_cat_multi_stim_exp1","2022-3-28","11:25:54","25","75","3","9","10","40","30","120","4","20","[""White""]","No","Female","1831819","1782","","u","learn","","learn_trial","20","70","out","1","0","","","","","","","","","","","","","","","","","","","",""
"","","","","","canvas-keyboard-response","266","373575","0.0-13.0-3.50","2d_cat_multi_stim_exp1","2022-3-28","11:25:54","25","75","3","9","10","40","30","120","4","20","[""White""]","No","Female","1831819","null","","null","learn_feedback","","learn_feedback","20","70","out","","","","","","","","","","","","","","","","","","","","","",""
"","","","","","canvas-keyboard-response","267","373633","0.0-13.0-4.50","2d_cat_multi_stim_exp1","2022-3-28","11:25:54","25","75","3","9","10","40","30","120","4","20","[""White""]","No","Female","1831819","null","","null","","","clear_screen","","","","","","","","","","","","","","","","","","","","","","","","",""
"","","","","","canvas-keyboard-response","268","374142","0.0-13.0-0.51","2d_cat_multi_stim_exp1","2022-3-28","11:25:54","25","75","3","9","10","40","30","120","4","20","[""White""]","No","Female","1831819","null","","null","","","fixation","","","","","","","","","","","","","","","","","","","","","","","","",""
"","","","","","canvas-keyboard-response","269","374650","0.0-13.0-1.51","2d_cat_multi_stim_exp1","2022-3-28","11:25:54","25","75","3","9","10","40","30","120","4","20","[""White""]","No","Female","1831819","null","","null","","","clear_screen","","","","","","","","","","","","","","","","","","","","","","","","",""
"","","","","","canvas-keyboard-response","270","376279","0.0-13.0-2.51","2d_cat_multi_stim_exp1","2022-3-28","11:25:54","25","75","3","9","10","40","30","120","4","20","[""White""]","No","Female","1831819","1620","","u","learn","","learn_trial","27.9518","73.393","in","1","1","","","","","","","","","","","","","","","","","","","",""
"","","","","","canvas-keyboard-response","271","376788","0.0-13.0-3.51","2d_cat_multi_stim_exp1","2022-3-28","11:25:54","25","75","3","9","10","40","30","120","4","20","[""White""]","No","Female","1831819","null","","null","learn_feedback","","learn_feedback","27.9518","73.393","in","","","","","","","","","","","","","","","","","","","","","",""
"","","","","","canvas-keyboard-response","272","376849","0.0-13.0-4.51","2d_cat_multi_stim_exp1","2022-3-28","11:25:54","25","75","3","9","10","40","30","120","4","20","[""White""]","No","Female","1831819","null","","null","","","clear_screen","","","","","","","","","","","","","","","","","","","","","","","","",""
"","","","","","canvas-keyboard-response","273","377356","0.0-13.0-0.52","2d_cat_multi_stim_exp1","2022-3-28","11:25:54","25","75","3","9","10","40","30","120","4","20","[""White""]","No","Female","1831819","null","","null","","","fixation","","","","","","","","","","","","","","","","","","","","","","","","",""
"","","","","","canvas-keyboard-response","274","377864","0.0-13.0-1.52","2d_cat_multi_stim_exp1","2022-3-28","11:25:54","25","75","3","9","10","40","30","120","4","20","[""White""]","No","Female","1831819","null","","null","","","clear_screen","","","","","","","","","","","","","","","","","","","","","","","","",""
"","","","","","canvas-keyboard-response","275","378670","0.0-13.0-2.52","2d_cat_multi_stim_exp1","2022-3-28","11:25:54","25","75","3","9","10","40","30","120","4","20","[""White""]","No","Female","1831819","797","","i","learn","","learn_trial","33.3333","100","out","0","1","","","","","","","","","","","","","","","","","","","",""
"","","","","","canvas-keyboard-response","276","379180","0.0-13.0-3.52","2d_cat_multi_stim_exp1","2022-3-28","11:25:54","25","75","3","9","10","40","30","120","4","20","[""White""]","No","Female","1831819","null","","null","learn_feedback","","learn_feedback","33.3333","100","out","","","","","","","","","","","","","","","","","","","","","",""
"","","","","","canvas-keyboard-response","277","379239","0.0-13.0-4.52","2d_cat_multi_stim_exp1","2022-3-28","11:25:54","25","75","3","9","10","40","30","120","4","20","[""White""]","No","Female","1831819","null","","null","","","clear_screen","","","","","","","","","","","","","","","","","","","","","","","","",""
"","","","","","canvas-keyboard-response","278","379749","0.0-13.0-0.53","2d_cat_multi_stim_exp1","2022-3-28","11:25:54","25","75","3","9","10","40","30","120","4","20","[""White""]","No","Female","1831819","null","","null","","","fixation","","","","","","","","","","","","","","","","","","","","","","","","",""
"","","","","","canvas-keyboard-response","279","380260","0.0-13.0-1.53","2d_cat_multi_stim_exp1","2022-3-28","11:25:54","25","75","3","9","10","40","30","120","4","20","[""White""]","No","Female","1831819","null","","null","","","clear_screen","","","","","","","","","","","","","","","","","","","","","","","","",""
"","","","","","canvas-keyboard-response","280","381375","0.0-13.0-2.53","2d_cat_multi_stim_exp1","2022-3-28","11:25:54","25","75","3","9","10","40","30","120","4","20","[""White""]","No","Female","1831819","1104","","u","learn","","learn_trial","25","75","in","1","1","","","","","","","","","","","","","","","","","","","",""
"","","","","","canvas-keyboard-response","281","381884","0.0-13.0-3.53","2d_cat_multi_stim_exp1","2022-3-28","11:25:54","25","75","3","9","10","40","30","120","4","20","[""White""]","No","Female","1831819","null","","null","learn_feedback","","learn_feedback","25","75","in","","","","","","","","","","","","","","","","","","","","","",""
"","","","","","canvas-keyboard-response","282","381943","0.0-13.0-4.53","2d_cat_multi_stim_exp1","2022-3-28","11:25:54","25","75","3","9","10","40","30","120","4","20","[""White""]","No","Female","1831819","null","","null","","","clear_screen","","","","","","","","","","","","","","","","","","","","","","","","",""
"","","","","","canvas-keyboard-response","283","382452","0.0-13.0-0.54","2d_cat_multi_stim_exp1","2022-3-28","11:25:54","25","75","3","9","10","40","30","120","4","20","[""White""]","No","Female","1831819","null","","null","","","fixation","","","","","","","","","","","","","","","","","","","","","","","","",""
"","","","","","canvas-keyboard-response","284","382961","0.0-13.0-1.54","2d_cat_multi_stim_exp1","2022-3-28","11:25:54","25","75","3","9","10","40","30","120","4","20","[""White""]","No","Female","1831819","null","","null","","","clear_screen","","","","","","","","","","","","","","","","","","","","","","","","",""
"","","","","","canvas-keyboard-response","285","383783","0.0-13.0-2.54","2d_cat_multi_stim_exp1","2022-3-28","11:25:54","25","75","3","9","10","40","30","120","4","20","[""White""]","No","Female","1831819","811","","i","learn","","learn_trial","13.3333","40","out","0","1","","","","","","","","","","","","","","","","","","","",""
"","","","","","canvas-keyboard-response","286","384293","0.0-13.0-3.54","2d_cat_multi_stim_exp1","2022-3-28","11:25:54","25","75","3","9","10","40","30","120","4","20","[""White""]","No","Female","1831819","null","","null","learn_feedback","","learn_feedback","13.3333","40","out","","","","","","","","","","","","","","","","","","","","","",""
"","","","","","canvas-keyboard-response","287","384352","0.0-13.0-4.54","2d_cat_multi_stim_exp1","2022-3-28","11:25:54","25","75","3","9","10","40","30","120","4","20","[""White""]","No","Female","1831819","null","","null","","","clear_screen","","","","","","","","","","","","","","","","","","","","","","","","",""
"","","","","","canvas-keyboard-response","288","384860","0.0-13.0-0.55","2d_cat_multi_stim_exp1","2022-3-28","11:25:54","25","75","3","9","10","40","30","120","4","20","[""White""]","No","Female","1831819","null","","null","","","fixation","","","","","","","","","","","","","","","","","","","","","","","","",""
"","","","","","canvas-keyboard-response","289","385369","0.0-13.0-1.55","2d_cat_multi_stim_exp1","2022-3-28","11:25:54","25","75","3","9","10","40","30","120","4","20","[""White""]","No","Female","1831819","null","","null","","","clear_screen","","","","","","","","","","","","","","","","","","","","","","","","",""
"","","","","","canvas-keyboard-response","290","386086","0.0-13.0-2.55","2d_cat_multi_stim_exp1","2022-3-28","11:25:54","25","75","3","9","10","40","30","120","4","20","[""White""]","No","Female","1831819","708","","i","learn","","learn_trial","20","30","out","0","1","","","","","","","","","","","","","","","","","","","",""
"","","","","","canvas-keyboard-response","291","386596","0.0-13.0-3.55","2d_cat_multi_stim_exp1","2022-3-28","11:25:54","25","75","3","9","10","40","30","120","4","20","[""White""]","No","Female","1831819","null","","null","learn_feedback","","learn_feedback","20","30","out","","","","","","","","","","","","","","","","","","","","","",""
"","","","","","canvas-keyboard-response","292","386654","0.0-13.0-4.55","2d_cat_multi_stim_exp1","2022-3-28","11:25:54","25","75","3","9","10","40","30","120","4","20","[""White""]","No","Female","1831819","null","","null","","","clear_screen","","","","","","","","","","","","","","","","","","","","","","","","",""
"","","","","","canvas-keyboard-response","293","387163","0.0-13.0-0.56","2d_cat_multi_stim_exp1","2022-3-28","11:25:54","25","75","3","9","10","40","30","120","4","20","[""White""]","No","Female","1831819","null","","null","","","fixation","","","","","","","","","","","","","","","","","","","","","","","","",""
"","","","","","canvas-keyboard-response","294","387671","0.0-13.0-1.56","2d_cat_multi_stim_exp1","2022-3-28","11:25:54","25","75","3","9","10","40","30","120","4","20","[""White""]","No","Female","1831819","null","","null","","","clear_screen","","","","","","","","","","","","","","","","","","","","","","","","",""
"","","","","","canvas-keyboard-response","295","388726","0.0-13.0-2.56","2d_cat_multi_stim_exp1","2022-3-28","11:25:54","25","75","3","9","10","40","30","120","4","20","[""White""]","No","Female","1831819","1045","","u","learn","","learn_trial","23.8209","66.7243","in","1","1","","","","","","","","","","","","","","","","","","","",""
"","","","","","canvas-keyboard-response","296","389236","0.0-13.0-3.56","2d_cat_multi_stim_exp1","2022-3-28","11:25:54","25","75","3","9","10","40","30","120","4","20","[""White""]","No","Female","1831819","null","","null","learn_feedback","","learn_feedback","23.8209","66.7243","in","","","","","","","","","","","","","","","","","","","","","",""
"","","","","","canvas-keyboard-response","297","389294","0.0-13.0-4.56","2d_cat_multi_stim_exp1","2022-3-28","11:25:54","25","75","3","9","10","40","30","120","4","20","[""White""]","No","Female","1831819","null","","null","","","clear_screen","","","","","","","","","","","","","","","","","","","","","","","","",""
"","","","","","canvas-keyboard-response","298","389803","0.0-13.0-0.57","2d_cat_multi_stim_exp1","2022-3-28","11:25:54","25","75","3","9","10","40","30","120","4","20","[""White""]","No","Female","1831819","null","","null","","","fixation","","","","","","","","","","","","","","","","","","","","","","","","",""
"","","","","","canvas-keyboard-response","299","390310","0.0-13.0-1.57","2d_cat_multi_stim_exp1","2022-3-28","11:25:54","25","75","3","9","10","40","30","120","4","20","[""White""]","No","Female","1831819","null","","null","","","clear_screen","","","","","","","","","","","","","","","","","","","","","","","","",""
