"success","timeout","failed_images","failed_audio","failed_video","trial_type","trial_index","time_elapsed","internal_node_id","exp_name","date","time","angle_mean_in","radius_mean_in","angle_sd_in","radius_sd_in","angle_min_out","angle_max_out","radius_min_out","radius_max_out","sub_n","age","race","ethnicity","gender","exp_duration","rt","response","exp_trial_type","stimulus","view_history","screen_id","angle","radius","distribution","choice","correct","order","angle_a","radius_a","angle_b","radius_b","jkl_correct","transfer_trial_type","choice_set","abc_correct","tc_correct","tc_angle","tdc_a","tdc_b","tdc_c","pair","category_a","category_b","category_c","angle_c","radius_c","question_order"
"true","false","[]","[]","[]","preload","0","25","0.0-0.0","2d_cat_multi_stim_exp1","2022-5-4","12:58:35","25","75","3","9","10","40","30","120","89","20","[""Asian""]","No","Female","2000498","","","","","","","","","","","","","","","","","","","","","","","","","","","","","","","",""
"","","","","","survey-html-form","1","3050","0.0-1.0","2d_cat_multi_stim_exp1","2022-5-4","12:58:35","25","75","3","9","10","40","30","120","89","20","[""Asian""]","No","Female","2000498","3011","{""response"":""89""}","enter-sub-number","","","","","","","","","","","","","","","","","","","","","","","","","","","","",""
"true","","","","","fullscreen","2","4860","0.0-2.0","2d_cat_multi_stim_exp1","2022-5-4","12:58:35","25","75","3","9","10","40","30","120","89","20","[""Asian""]","No","Female","2000498","","","","","","","","","","","","","","","","","","","","","","","","","","","","","","","",""
"","","","","","image-button-response","3","102924","0.0-3.0","2d_cat_multi_stim_exp1","2022-5-4","12:58:35","25","75","3","9","10","40","30","120","89","20","[""Asian""]","No","Female","2000498","98056","0","","consent.png","","","","","","","","","","","","","","","","","","","","","","","","","","","",""
"","","","","","html-button-response","4","106755","0.0-4.0","2d_cat_multi_stim_exp1","2022-5-4","12:58:35","25","75","3","9","10","40","30","120","89","20","[""Asian""]","No","Female","2000498","3828","0","","<div style= ""font-size:25px;"" <p> <strong> Welcome to the experiment! </strong><br> <p style=""color:#8B0000; font-size:25px;""><strong> Please do NOT exit full screen until you are done with the experiment. </strong> </p><p style=""font-size:25px;color:#8B0000;""> <strong> The experiment will be canceled and your data will be lost <br> if you try to go back or refresh the page at any point during the experiment.</strong> </p><br><p> <strong> Thanks in advance for your contribution to our research! </strong></p>","","","","","","","","","","","","","","","","","","","","","","","","","","","",""
"","","","","","instructions","5","147954","0.0-5.0","2d_cat_multi_stim_exp1","2022-5-4","12:58:35","25","75","3","9","10","40","30","120","89","20","[""Asian""]","No","Female","2000498","41195","","","","[{""page_index"":0,""viewing_time"":7650},{""page_index"":1,""viewing_time"":3872},{""page_index"":0,""viewing_time"":952},{""page_index"":1,""viewing_time"":1145},{""page_index"":2,""viewing_time"":10039},{""page_index"":3,""viewing_time"":17536}]","instructions_1","","","","","","","","","","","","","","","","","","","","","","","","","",""
"","","","","","instructions","6","151132","0.0-6.0","2d_cat_multi_stim_exp1","2022-5-4","12:58:35","25","75","3","9","10","40","30","120","89","20","[""Asian""]","No","Female","2000498","3173","","","","[{""page_index"":0,""viewing_time"":3172}]","Click to see the kinds of turtles that will appear in the study.","","","","","","","","","","","","","","","","","","","","","","","","","",""
"","","","","","canvas-keyboard-response","7","166155","0.0-7.0","2d_cat_multi_stim_exp1","2022-5-4","12:58:35","25","75","3","9","10","40","30","120","89","20","[""Asian""]","No","Female","2000498","null","null","","","","demo_range","","","","","","","","","","","","","","","","","","","","","","","","","",""
"","","","","","instructions","8","168675","0.0-8.0","2d_cat_multi_stim_exp1","2022-5-4","12:58:35","25","75","3","9","10","40","30","120","89","20","[""Asian""]","No","Female","2000498","2020","","","","[{""page_index"":0,""viewing_time"":2020}]","Click to see some turtles in the subspecies.","","","","","","","","","","","","","","","","","","","","","","","","","",""
"","","","","","canvas-keyboard-response","9","183699","0.0-9.0","2d_cat_multi_stim_exp1","2022-5-4","12:58:35","25","75","3","9","10","40","30","120","89","20","[""Asian""]","No","Female","2000498","null","null","","","","demo_in","","","","","","","","","","","","","","","","","","","","","","","","","",""
"","","","","","instructions","10","212394","0.0-10.0","2d_cat_multi_stim_exp1","2022-5-4","12:58:35","25","75","3","9","10","40","30","120","89","20","[""Asian""]","No","Female","2000498","28194","","","","[{""page_index"":0,""viewing_time"":6610},{""page_index"":1,""viewing_time"":14984},{""page_index"":2,""viewing_time"":6600}]","instructions_2","","","","","","","","","","","","","","","","","","","","","","","","","",""
"","","","","","instructions","11","213547","0.0-11.0","2d_cat_multi_stim_exp1","2022-5-4","12:58:35","25","75","3","9","10","40","30","120","89","20","[""Asian""]","No","Female","2000498","1149","","","","[{""page_index"":0,""viewing_time"":1149}]","Click to begin the first phase of the experiment.","","","","","","","","","","","","","","","","","","","","","","","","","",""
"","","","","","canvas-keyboard-response","12","214058","0.0-12.0-0.0","2d_cat_multi_stim_exp1","2022-5-4","12:58:35","25","75","3","9","10","40","30","120","89","20","[""Asian""]","No","Female","2000498","null","null","","","","fixation","","","","","","","","","","","","","","","","","","","","","","","","","",""
"","","","","","canvas-keyboard-response","13","214569","0.0-12.0-1.0","2d_cat_multi_stim_exp1","2022-5-4","12:58:35","25","75","3","9","10","40","30","120","89","20","[""Asian""]","No","Female","2000498","null","null","","","","clear_screen","","","","","","","","","","","","","","","","","","","","","","","","","",""
"","","","","","canvas-keyboard-response","14","220872","0.0-12.0-2.0","2d_cat_multi_stim_exp1","2022-5-4","12:58:35","25","75","3","9","10","40","30","120","89","20","[""Asian""]","No","Female","2000498","6291","i","learn","","","learn_trial","10","60","out","0","1","","","","","","","","","","","","","","","","","","","","",""
"","","","","","canvas-keyboard-response","15","221385","0.0-12.0-3.0","2d_cat_multi_stim_exp1","2022-5-4","12:58:35","25","75","3","9","10","40","30","120","89","20","[""Asian""]","No","Female","2000498","null","null","learn_feedback","","","learn_feedback","10","60","out","","","","","","","","","","","","","","","","","","","","","","",""
"","","","","","canvas-keyboard-response","16","221447","0.0-12.0-4.0","2d_cat_multi_stim_exp1","2022-5-4","12:58:35","25","75","3","9","10","40","30","120","89","20","[""Asian""]","No","Female","2000498","null","null","","","","clear_screen","","","","","","","","","","","","","","","","","","","","","","","","","",""
"","","","","","canvas-keyboard-response","17","221958","0.0-12.0-0.1","2d_cat_multi_stim_exp1","2022-5-4","12:58:35","25","75","3","9","10","40","30","120","89","20","[""Asian""]","No","Female","2000498","null","null","","","","fixation","","","","","","","","","","","","","","","","","","","","","","","","","",""
"","","","","","canvas-keyboard-response","18","222469","0.0-12.0-1.1","2d_cat_multi_stim_exp1","2022-5-4","12:58:35","25","75","3","9","10","40","30","120","89","20","[""Asian""]","No","Female","2000498","null","null","","","","clear_screen","","","","","","","","","","","","","","","","","","","","","","","","","",""
"","","","","","canvas-keyboard-response","19","224784","0.0-12.0-2.1","2d_cat_multi_stim_exp1","2022-5-4","12:58:35","25","75","3","9","10","40","30","120","89","20","[""Asian""]","No","Female","2000498","2305","u","learn","","","learn_trial","13.3333","30","out","1","0","","","","","","","","","","","","","","","","","","","","",""
"","","","","","canvas-keyboard-response","20","225795","0.0-12.0-3.1","2d_cat_multi_stim_exp1","2022-5-4","12:58:35","25","75","3","9","10","40","30","120","89","20","[""Asian""]","No","Female","2000498","null","null","learn_feedback","","","learn_feedback","13.3333","30","out","","","","","","","","","","","","","","","","","","","","","","",""
"","","","","","canvas-keyboard-response","21","225854","0.0-12.0-4.1","2d_cat_multi_stim_exp1","2022-5-4","12:58:35","25","75","3","9","10","40","30","120","89","20","[""Asian""]","No","Female","2000498","null","null","","","","clear_screen","","","","","","","","","","","","","","","","","","","","","","","","","",""
"","","","","","canvas-keyboard-response","22","226364","0.0-12.0-0.2","2d_cat_multi_stim_exp1","2022-5-4","12:58:35","25","75","3","9","10","40","30","120","89","20","[""Asian""]","No","Female","2000498","null","null","","","","fixation","","","","","","","","","","","","","","","","","","","","","","","","","",""
"","","","","","canvas-keyboard-response","23","226873","0.0-12.0-1.2","2d_cat_multi_stim_exp1","2022-5-4","12:58:35","25","75","3","9","10","40","30","120","89","20","[""Asian""]","No","Female","2000498","null","null","","","","clear_screen","","","","","","","","","","","","","","","","","","","","","","","","","",""
"","","","","","canvas-keyboard-response","24","229776","0.0-12.0-2.2","2d_cat_multi_stim_exp1","2022-5-4","12:58:35","25","75","3","9","10","40","30","120","89","20","[""Asian""]","No","Female","2000498","2892","i","learn","","","learn_trial","40","80","out","0","1","","","","","","","","","","","","","","","","","","","","",""
"","","","","","canvas-keyboard-response","25","230287","0.0-12.0-3.2","2d_cat_multi_stim_exp1","2022-5-4","12:58:35","25","75","3","9","10","40","30","120","89","20","[""Asian""]","No","Female","2000498","null","null","learn_feedback","","","learn_feedback","40","80","out","","","","","","","","","","","","","","","","","","","","","","",""
"","","","","","canvas-keyboard-response","26","230346","0.0-12.0-4.2","2d_cat_multi_stim_exp1","2022-5-4","12:58:35","25","75","3","9","10","40","30","120","89","20","[""Asian""]","No","Female","2000498","null","null","","","","clear_screen","","","","","","","","","","","","","","","","","","","","","","","","","",""
"","","","","","canvas-keyboard-response","27","230856","0.0-12.0-0.3","2d_cat_multi_stim_exp1","2022-5-4","12:58:35","25","75","3","9","10","40","30","120","89","20","[""Asian""]","No","Female","2000498","null","null","","","","fixation","","","","","","","","","","","","","","","","","","","","","","","","","",""
"","","","","","canvas-keyboard-response","28","231365","0.0-12.0-1.3","2d_cat_multi_stim_exp1","2022-5-4","12:58:35","25","75","3","9","10","40","30","120","89","20","[""Asian""]","No","Female","2000498","null","null","","","","clear_screen","","","","","","","","","","","","","","","","","","","","","","","","","",""
"","","","","","canvas-keyboard-response","29","232120","0.0-12.0-2.3","2d_cat_multi_stim_exp1","2022-5-4","12:58:35","25","75","3","9","10","40","30","120","89","20","[""Asian""]","No","Female","2000498","744","i","learn","","","learn_trial","27.8087","78.1624","in","0","0","","","","","","","","","","","","","","","","","","","","",""
"","","","","","canvas-keyboard-response","30","233135","0.0-12.0-3.3","2d_cat_multi_stim_exp1","2022-5-4","12:58:35","25","75","3","9","10","40","30","120","89","20","[""Asian""]","No","Female","2000498","null","null","learn_feedback","","","learn_feedback","27.8087","78.1624","in","","","","","","","","","","","","","","","","","","","","","","",""
"","","","","","canvas-keyboard-response","31","233195","0.0-12.0-4.3","2d_cat_multi_stim_exp1","2022-5-4","12:58:35","25","75","3","9","10","40","30","120","89","20","[""Asian""]","No","Female","2000498","null","null","","","","clear_screen","","","","","","","","","","","","","","","","","","","","","","","","","",""
"","","","","","canvas-keyboard-response","32","233704","0.0-12.0-0.4","2d_cat_multi_stim_exp1","2022-5-4","12:58:35","25","75","3","9","10","40","30","120","89","20","[""Asian""]","No","Female","2000498","null","null","","","","fixation","","","","","","","","","","","","","","","","","","","","","","","","","",""
"","","","","","canvas-keyboard-response","33","234214","0.0-12.0-1.4","2d_cat_multi_stim_exp1","2022-5-4","12:58:35","25","75","3","9","10","40","30","120","89","20","[""Asian""]","No","Female","2000498","null","null","","","","clear_screen","","","","","","","","","","","","","","","","","","","","","","","","","",""
"","","","","","canvas-keyboard-response","34","237928","0.0-12.0-2.4","2d_cat_multi_stim_exp1","2022-5-4","12:58:35","25","75","3","9","10","40","30","120","89","20","[""Asian""]","No","Female","2000498","3704","u","learn","","","learn_trial","25","75","in","1","1","","","","","","","","","","","","","","","","","","","","",""
"","","","","","canvas-keyboard-response","35","238439","0.0-12.0-3.4","2d_cat_multi_stim_exp1","2022-5-4","12:58:35","25","75","3","9","10","40","30","120","89","20","[""Asian""]","No","Female","2000498","null","null","learn_feedback","","","learn_feedback","25","75","in","","","","","","","","","","","","","","","","","","","","","","",""
"","","","","","canvas-keyboard-response","36","238498","0.0-12.0-4.4","2d_cat_multi_stim_exp1","2022-5-4","12:58:35","25","75","3","9","10","40","30","120","89","20","[""Asian""]","No","Female","2000498","null","null","","","","clear_screen","","","","","","","","","","","","","","","","","","","","","","","","","",""
"","","","","","canvas-keyboard-response","37","239007","0.0-12.0-0.5","2d_cat_multi_stim_exp1","2022-5-4","12:58:35","25","75","3","9","10","40","30","120","89","20","[""Asian""]","No","Female","2000498","null","null","","","","fixation","","","","","","","","","","","","","","","","","","","","","","","","","",""
"","","","","","canvas-keyboard-response","38","239517","0.0-12.0-1.5","2d_cat_multi_stim_exp1","2022-5-4","12:58:35","25","75","3","9","10","40","30","120","89","20","[""Asian""]","No","Female","2000498","null","null","","","","clear_screen","","","","","","","","","","","","","","","","","","","","","","","","","",""
"","","","","","canvas-keyboard-response","39","242584","0.0-12.0-2.5","2d_cat_multi_stim_exp1","2022-5-4","12:58:35","25","75","3","9","10","40","30","120","89","20","[""Asian""]","No","Female","2000498","3058","u","learn","","","learn_trial","25","75","in","1","1","","","","","","","","","","","","","","","","","","","","",""
"","","","","","canvas-keyboard-response","40","243092","0.0-12.0-3.5","2d_cat_multi_stim_exp1","2022-5-4","12:58:35","25","75","3","9","10","40","30","120","89","20","[""Asian""]","No","Female","2000498","null","null","learn_feedback","","","learn_feedback","25","75","in","","","","","","","","","","","","","","","","","","","","","","",""
"","","","","","canvas-keyboard-response","41","243152","0.0-12.0-4.5","2d_cat_multi_stim_exp1","2022-5-4","12:58:35","25","75","3","9","10","40","30","120","89","20","[""Asian""]","No","Female","2000498","null","null","","","","clear_screen","","","","","","","","","","","","","","","","","","","","","","","","","",""
"","","","","","canvas-keyboard-response","42","243660","0.0-12.0-0.6","2d_cat_multi_stim_exp1","2022-5-4","12:58:35","25","75","3","9","10","40","30","120","89","20","[""Asian""]","No","Female","2000498","null","null","","","","fixation","","","","","","","","","","","","","","","","","","","","","","","","","",""
"","","","","","canvas-keyboard-response","43","244170","0.0-12.0-1.6","2d_cat_multi_stim_exp1","2022-5-4","12:58:35","25","75","3","9","10","40","30","120","89","20","[""Asian""]","No","Female","2000498","null","null","","","","clear_screen","","","","","","","","","","","","","","","","","","","","","","","","","",""
"","","","","","canvas-keyboard-response","44","245320","0.0-12.0-2.6","2d_cat_multi_stim_exp1","2022-5-4","12:58:35","25","75","3","9","10","40","30","120","89","20","[""Asian""]","No","Female","2000498","1139","u","learn","","","learn_trial","33.3333","120","out","1","0","","","","","","","","","","","","","","","","","","","","",""
"","","","","","canvas-keyboard-response","45","246330","0.0-12.0-3.6","2d_cat_multi_stim_exp1","2022-5-4","12:58:35","25","75","3","9","10","40","30","120","89","20","[""Asian""]","No","Female","2000498","null","null","learn_feedback","","","learn_feedback","33.3333","120","out","","","","","","","","","","","","","","","","","","","","","","",""
"","","","","","canvas-keyboard-response","46","246389","0.0-12.0-4.6","2d_cat_multi_stim_exp1","2022-5-4","12:58:35","25","75","3","9","10","40","30","120","89","20","[""Asian""]","No","Female","2000498","null","null","","","","clear_screen","","","","","","","","","","","","","","","","","","","","","","","","","",""
"","","","","","canvas-keyboard-response","47","246898","0.0-12.0-0.7","2d_cat_multi_stim_exp1","2022-5-4","12:58:35","25","75","3","9","10","40","30","120","89","20","[""Asian""]","No","Female","2000498","null","null","","","","fixation","","","","","","","","","","","","","","","","","","","","","","","","","",""
"","","","","","canvas-keyboard-response","48","247408","0.0-12.0-1.7","2d_cat_multi_stim_exp1","2022-5-4","12:58:35","25","75","3","9","10","40","30","120","89","20","[""Asian""]","No","Female","2000498","null","null","","","","clear_screen","","","","","","","","","","","","","","","","","","","","","","","","","",""
"","","","","","canvas-keyboard-response","49","250210","0.0-12.0-2.7","2d_cat_multi_stim_exp1","2022-5-4","12:58:35","25","75","3","9","10","40","30","120","89","20","[""Asian""]","No","Female","2000498","2792","u","learn","","","learn_trial","30","60","out","1","0","","","","","","","","","","","","","","","","","","","","",""
"","","","","","canvas-keyboard-response","50","251218","0.0-12.0-3.7","2d_cat_multi_stim_exp1","2022-5-4","12:58:35","25","75","3","9","10","40","30","120","89","20","[""Asian""]","No","Female","2000498","null","null","learn_feedback","","","learn_feedback","30","60","out","","","","","","","","","","","","","","","","","","","","","","",""
"","","","","","canvas-keyboard-response","51","251277","0.0-12.0-4.7","2d_cat_multi_stim_exp1","2022-5-4","12:58:35","25","75","3","9","10","40","30","120","89","20","[""Asian""]","No","Female","2000498","null","null","","","","clear_screen","","","","","","","","","","","","","","","","","","","","","","","","","",""
"","","","","","canvas-keyboard-response","52","251787","0.0-12.0-0.8","2d_cat_multi_stim_exp1","2022-5-4","12:58:35","25","75","3","9","10","40","30","120","89","20","[""Asian""]","No","Female","2000498","null","null","","","","fixation","","","","","","","","","","","","","","","","","","","","","","","","","",""
"","","","","","canvas-keyboard-response","53","252296","0.0-12.0-1.8","2d_cat_multi_stim_exp1","2022-5-4","12:58:35","25","75","3","9","10","40","30","120","89","20","[""Asian""]","No","Female","2000498","null","null","","","","clear_screen","","","","","","","","","","","","","","","","","","","","","","","","","",""
"","","","","","canvas-keyboard-response","54","254128","0.0-12.0-2.8","2d_cat_multi_stim_exp1","2022-5-4","12:58:35","25","75","3","9","10","40","30","120","89","20","[""Asian""]","No","Female","2000498","1823","u","learn","","","learn_trial","25","75","in","1","1","","","","","","","","","","","","","","","","","","","","",""
"","","","","","canvas-keyboard-response","55","254637","0.0-12.0-3.8","2d_cat_multi_stim_exp1","2022-5-4","12:58:35","25","75","3","9","10","40","30","120","89","20","[""Asian""]","No","Female","2000498","null","null","learn_feedback","","","learn_feedback","25","75","in","","","","","","","","","","","","","","","","","","","","","","",""
"","","","","","canvas-keyboard-response","56","254697","0.0-12.0-4.8","2d_cat_multi_stim_exp1","2022-5-4","12:58:35","25","75","3","9","10","40","30","120","89","20","[""Asian""]","No","Female","2000498","null","null","","","","clear_screen","","","","","","","","","","","","","","","","","","","","","","","","","",""
"","","","","","canvas-keyboard-response","57","255205","0.0-12.0-0.9","2d_cat_multi_stim_exp1","2022-5-4","12:58:35","25","75","3","9","10","40","30","120","89","20","[""Asian""]","No","Female","2000498","null","null","","","","fixation","","","","","","","","","","","","","","","","","","","","","","","","","",""
"","","","","","canvas-keyboard-response","58","255715","0.0-12.0-1.9","2d_cat_multi_stim_exp1","2022-5-4","12:58:35","25","75","3","9","10","40","30","120","89","20","[""Asian""]","No","Female","2000498","null","null","","","","clear_screen","","","","","","","","","","","","","","","","","","","","","","","","","",""
"","","","","","canvas-keyboard-response","59","257159","0.0-12.0-2.9","2d_cat_multi_stim_exp1","2022-5-4","12:58:35","25","75","3","9","10","40","30","120","89","20","[""Asian""]","No","Female","2000498","1435","u","learn","","","learn_trial","25","75","in","1","1","","","","","","","","","","","","","","","","","","","","",""
"","","","","","canvas-keyboard-response","60","257668","0.0-12.0-3.9","2d_cat_multi_stim_exp1","2022-5-4","12:58:35","25","75","3","9","10","40","30","120","89","20","[""Asian""]","No","Female","2000498","null","null","learn_feedback","","","learn_feedback","25","75","in","","","","","","","","","","","","","","","","","","","","","","",""
"","","","","","canvas-keyboard-response","61","257730","0.0-12.0-4.9","2d_cat_multi_stim_exp1","2022-5-4","12:58:35","25","75","3","9","10","40","30","120","89","20","[""Asian""]","No","Female","2000498","null","null","","","","clear_screen","","","","","","","","","","","","","","","","","","","","","","","","","",""
"","","","","","canvas-keyboard-response","62","258239","0.0-12.0-0.10","2d_cat_multi_stim_exp1","2022-5-4","12:58:35","25","75","3","9","10","40","30","120","89","20","[""Asian""]","No","Female","2000498","null","null","","","","fixation","","","","","","","","","","","","","","","","","","","","","","","","","",""
"","","","","","canvas-keyboard-response","63","258747","0.0-12.0-1.10","2d_cat_multi_stim_exp1","2022-5-4","12:58:35","25","75","3","9","10","40","30","120","89","20","[""Asian""]","No","Female","2000498","null","null","","","","clear_screen","","","","","","","","","","","","","","","","","","","","","","","","","",""
"","","","","","canvas-keyboard-response","64","259464","0.0-12.0-2.10","2d_cat_multi_stim_exp1","2022-5-4","12:58:35","25","75","3","9","10","40","30","120","89","20","[""Asian""]","No","Female","2000498","707","i","learn","","","learn_trial","36.6667","100","out","0","1","","","","","","","","","","","","","","","","","","","","",""
"","","","","","canvas-keyboard-response","65","259973","0.0-12.0-3.10","2d_cat_multi_stim_exp1","2022-5-4","12:58:35","25","75","3","9","10","40","30","120","89","20","[""Asian""]","No","Female","2000498","null","null","learn_feedback","","","learn_feedback","36.6667","100","out","","","","","","","","","","","","","","","","","","","","","","",""
"","","","","","canvas-keyboard-response","66","260032","0.0-12.0-4.10","2d_cat_multi_stim_exp1","2022-5-4","12:58:35","25","75","3","9","10","40","30","120","89","20","[""Asian""]","No","Female","2000498","null","null","","","","clear_screen","","","","","","","","","","","","","","","","","","","","","","","","","",""
"","","","","","canvas-keyboard-response","67","260541","0.0-12.0-0.11","2d_cat_multi_stim_exp1","2022-5-4","12:58:35","25","75","3","9","10","40","30","120","89","20","[""Asian""]","No","Female","2000498","null","null","","","","fixation","","","","","","","","","","","","","","","","","","","","","","","","","",""
"","","","","","canvas-keyboard-response","68","261051","0.0-12.0-1.11","2d_cat_multi_stim_exp1","2022-5-4","12:58:35","25","75","3","9","10","40","30","120","89","20","[""Asian""]","No","Female","2000498","null","null","","","","clear_screen","","","","","","","","","","","","","","","","","","","","","","","","","",""
"","","","","","canvas-keyboard-response","69","262240","0.0-12.0-2.11","2d_cat_multi_stim_exp1","2022-5-4","12:58:35","25","75","3","9","10","40","30","120","89","20","[""Asian""]","No","Female","2000498","1180","i","learn","","","learn_trial","23.3333","120","out","0","1","","","","","","","","","","","","","","","","","","","","",""
"","","","","","canvas-keyboard-response","70","262749","0.0-12.0-3.11","2d_cat_multi_stim_exp1","2022-5-4","12:58:35","25","75","3","9","10","40","30","120","89","20","[""Asian""]","No","Female","2000498","null","null","learn_feedback","","","learn_feedback","23.3333","120","out","","","","","","","","","","","","","","","","","","","","","","",""
"","","","","","canvas-keyboard-response","71","262808","0.0-12.0-4.11","2d_cat_multi_stim_exp1","2022-5-4","12:58:35","25","75","3","9","10","40","30","120","89","20","[""Asian""]","No","Female","2000498","null","null","","","","clear_screen","","","","","","","","","","","","","","","","","","","","","","","","","",""
"","","","","","canvas-keyboard-response","72","263316","0.0-12.0-0.12","2d_cat_multi_stim_exp1","2022-5-4","12:58:35","25","75","3","9","10","40","30","120","89","20","[""Asian""]","No","Female","2000498","null","null","","","","fixation","","","","","","","","","","","","","","","","","","","","","","","","","",""
"","","","","","canvas-keyboard-response","73","263826","0.0-12.0-1.12","2d_cat_multi_stim_exp1","2022-5-4","12:58:35","25","75","3","9","10","40","30","120","89","20","[""Asian""]","No","Female","2000498","null","null","","","","clear_screen","","","","","","","","","","","","","","","","","","","","","","","","","",""
"","","","","","canvas-keyboard-response","74","265807","0.0-12.0-2.12","2d_cat_multi_stim_exp1","2022-5-4","12:58:35","25","75","3","9","10","40","30","120","89","20","[""Asian""]","No","Female","2000498","1972","u","learn","","","learn_trial","22.0121","74.1932","in","1","1","","","","","","","","","","","","","","","","","","","","",""
"","","","","","canvas-keyboard-response","75","266317","0.0-12.0-3.12","2d_cat_multi_stim_exp1","2022-5-4","12:58:35","25","75","3","9","10","40","30","120","89","20","[""Asian""]","No","Female","2000498","null","null","learn_feedback","","","learn_feedback","22.0121","74.1932","in","","","","","","","","","","","","","","","","","","","","","","",""
"","","","","","canvas-keyboard-response","76","266375","0.0-12.0-4.12","2d_cat_multi_stim_exp1","2022-5-4","12:58:35","25","75","3","9","10","40","30","120","89","20","[""Asian""]","No","Female","2000498","null","null","","","","clear_screen","","","","","","","","","","","","","","","","","","","","","","","","","",""
"","","","","","canvas-keyboard-response","77","266887","0.0-12.0-0.13","2d_cat_multi_stim_exp1","2022-5-4","12:58:35","25","75","3","9","10","40","30","120","89","20","[""Asian""]","No","Female","2000498","null","null","","","","fixation","","","","","","","","","","","","","","","","","","","","","","","","","",""
"","","","","","canvas-keyboard-response","78","267397","0.0-12.0-1.13","2d_cat_multi_stim_exp1","2022-5-4","12:58:35","25","75","3","9","10","40","30","120","89","20","[""Asian""]","No","Female","2000498","null","null","","","","clear_screen","","","","","","","","","","","","","","","","","","","","","","","","","",""
"","","","","","canvas-keyboard-response","79","268080","0.0-12.0-2.13","2d_cat_multi_stim_exp1","2022-5-4","12:58:35","25","75","3","9","10","40","30","120","89","20","[""Asian""]","No","Female","2000498","674","u","learn","","","learn_trial","25","75","in","1","1","","","","","","","","","","","","","","","","","","","","",""
"","","","","","canvas-keyboard-response","80","268589","0.0-12.0-3.13","2d_cat_multi_stim_exp1","2022-5-4","12:58:35","25","75","3","9","10","40","30","120","89","20","[""Asian""]","No","Female","2000498","null","null","learn_feedback","","","learn_feedback","25","75","in","","","","","","","","","","","","","","","","","","","","","","",""
"","","","","","canvas-keyboard-response","81","268648","0.0-12.0-4.13","2d_cat_multi_stim_exp1","2022-5-4","12:58:35","25","75","3","9","10","40","30","120","89","20","[""Asian""]","No","Female","2000498","null","null","","","","clear_screen","","","","","","","","","","","","","","","","","","","","","","","","","",""
"","","","","","canvas-keyboard-response","82","269157","0.0-12.0-0.14","2d_cat_multi_stim_exp1","2022-5-4","12:58:35","25","75","3","9","10","40","30","120","89","20","[""Asian""]","No","Female","2000498","null","null","","","","fixation","","","","","","","","","","","","","","","","","","","","","","","","","",""
"","","","","","canvas-keyboard-response","83","269666","0.0-12.0-1.14","2d_cat_multi_stim_exp1","2022-5-4","12:58:35","25","75","3","9","10","40","30","120","89","20","[""Asian""]","No","Female","2000498","null","null","","","","clear_screen","","","","","","","","","","","","","","","","","","","","","","","","","",""
"","","","","","canvas-keyboard-response","84","270951","0.0-12.0-2.14","2d_cat_multi_stim_exp1","2022-5-4","12:58:35","25","75","3","9","10","40","30","120","89","20","[""Asian""]","No","Female","2000498","1275","i","learn","","","learn_trial","30","120","out","0","1","","","","","","","","","","","","","","","","","","","","",""
"","","","","","canvas-keyboard-response","85","271461","0.0-12.0-3.14","2d_cat_multi_stim_exp1","2022-5-4","12:58:35","25","75","3","9","10","40","30","120","89","20","[""Asian""]","No","Female","2000498","null","null","learn_feedback","","","learn_feedback","30","120","out","","","","","","","","","","","","","","","","","","","","","","",""
"","","","","","canvas-keyboard-response","86","271520","0.0-12.0-4.14","2d_cat_multi_stim_exp1","2022-5-4","12:58:35","25","75","3","9","10","40","30","120","89","20","[""Asian""]","No","Female","2000498","null","null","","","","clear_screen","","","","","","","","","","","","","","","","","","","","","","","","","",""
"","","","","","canvas-keyboard-response","87","272029","0.0-12.0-0.15","2d_cat_multi_stim_exp1","2022-5-4","12:58:35","25","75","3","9","10","40","30","120","89","20","[""Asian""]","No","Female","2000498","null","null","","","","fixation","","","","","","","","","","","","","","","","","","","","","","","","","",""
"","","","","","canvas-keyboard-response","88","272539","0.0-12.0-1.15","2d_cat_multi_stim_exp1","2022-5-4","12:58:35","25","75","3","9","10","40","30","120","89","20","[""Asian""]","No","Female","2000498","null","null","","","","clear_screen","","","","","","","","","","","","","","","","","","","","","","","","","",""
"","","","","","canvas-keyboard-response","89","273327","0.0-12.0-2.15","2d_cat_multi_stim_exp1","2022-5-4","12:58:35","25","75","3","9","10","40","30","120","89","20","[""Asian""]","No","Female","2000498","779","i","learn","","","learn_trial","23.8209","66.7243","in","0","0","","","","","","","","","","","","","","","","","","","","",""
"","","","","","canvas-keyboard-response","90","274336","0.0-12.0-3.15","2d_cat_multi_stim_exp1","2022-5-4","12:58:35","25","75","3","9","10","40","30","120","89","20","[""Asian""]","No","Female","2000498","null","null","learn_feedback","","","learn_feedback","23.8209","66.7243","in","","","","","","","","","","","","","","","","","","","","","","",""
"","","","","","canvas-keyboard-response","91","274396","0.0-12.0-4.15","2d_cat_multi_stim_exp1","2022-5-4","12:58:35","25","75","3","9","10","40","30","120","89","20","[""Asian""]","No","Female","2000498","null","null","","","","clear_screen","","","","","","","","","","","","","","","","","","","","","","","","","",""
"","","","","","canvas-keyboard-response","92","274905","0.0-12.0-0.16","2d_cat_multi_stim_exp1","2022-5-4","12:58:35","25","75","3","9","10","40","30","120","89","20","[""Asian""]","No","Female","2000498","null","null","","","","fixation","","","","","","","","","","","","","","","","","","","","","","","","","",""
"","","","","","canvas-keyboard-response","93","275416","0.0-12.0-1.16","2d_cat_multi_stim_exp1","2022-5-4","12:58:35","25","75","3","9","10","40","30","120","89","20","[""Asian""]","No","Female","2000498","null","null","","","","clear_screen","","","","","","","","","","","","","","","","","","","","","","","","","",""
"","","","","","canvas-keyboard-response","94","277208","0.0-12.0-2.16","2d_cat_multi_stim_exp1","2022-5-4","12:58:35","25","75","3","9","10","40","30","120","89","20","[""Asian""]","No","Female","2000498","1779","u","learn","","","learn_trial","40","70","out","1","0","","","","","","","","","","","","","","","","","","","","",""
"","","","","","canvas-keyboard-response","95","278219","0.0-12.0-3.16","2d_cat_multi_stim_exp1","2022-5-4","12:58:35","25","75","3","9","10","40","30","120","89","20","[""Asian""]","No","Female","2000498","null","null","learn_feedback","","","learn_feedback","40","70","out","","","","","","","","","","","","","","","","","","","","","","",""
"","","","","","canvas-keyboard-response","96","278279","0.0-12.0-4.16","2d_cat_multi_stim_exp1","2022-5-4","12:58:35","25","75","3","9","10","40","30","120","89","20","[""Asian""]","No","Female","2000498","null","null","","","","clear_screen","","","","","","","","","","","","","","","","","","","","","","","","","",""
"","","","","","canvas-keyboard-response","97","278790","0.0-12.0-0.17","2d_cat_multi_stim_exp1","2022-5-4","12:58:35","25","75","3","9","10","40","30","120","89","20","[""Asian""]","No","Female","2000498","null","null","","","","fixation","","","","","","","","","","","","","","","","","","","","","","","","","",""
"","","","","","canvas-keyboard-response","98","279300","0.0-12.0-1.17","2d_cat_multi_stim_exp1","2022-5-4","12:58:35","25","75","3","9","10","40","30","120","89","20","[""Asian""]","No","Female","2000498","null","null","","","","clear_screen","","","","","","","","","","","","","","","","","","","","","","","","","",""
"","","","","","canvas-keyboard-response","99","280880","0.0-12.0-2.17","2d_cat_multi_stim_exp1","2022-5-4","12:58:35","25","75","3","9","10","40","30","120","89","20","[""Asian""]","No","Female","2000498","1569","u","learn","","","learn_trial","25","75","in","1","1","","","","","","","","","","","","","","","","","","","","",""
"","","","","","canvas-keyboard-response","100","281391","0.0-12.0-3.17","2d_cat_multi_stim_exp1","2022-5-4","12:58:35","25","75","3","9","10","40","30","120","89","20","[""Asian""]","No","Female","2000498","null","null","learn_feedback","","","learn_feedback","25","75","in","","","","","","","","","","","","","","","","","","","","","","",""
"","","","","","canvas-keyboard-response","101","281450","0.0-12.0-4.17","2d_cat_multi_stim_exp1","2022-5-4","12:58:35","25","75","3","9","10","40","30","120","89","20","[""Asian""]","No","Female","2000498","null","null","","","","clear_screen","","","","","","","","","","","","","","","","","","","","","","","","","",""
"","","","","","canvas-keyboard-response","102","281959","0.0-12.0-0.18","2d_cat_multi_stim_exp1","2022-5-4","12:58:35","25","75","3","9","10","40","30","120","89","20","[""Asian""]","No","Female","2000498","null","null","","","","fixation","","","","","","","","","","","","","","","","","","","","","","","","","",""
"","","","","","canvas-keyboard-response","103","282469","0.0-12.0-1.18","2d_cat_multi_stim_exp1","2022-5-4","12:58:35","25","75","3","9","10","40","30","120","89","20","[""Asian""]","No","Female","2000498","null","null","","","","clear_screen","","","","","","","","","","","","","","","","","","","","","","","","","",""
"","","","","","canvas-keyboard-response","104","283624","0.0-12.0-2.18","2d_cat_multi_stim_exp1","2022-5-4","12:58:35","25","75","3","9","10","40","30","120","89","20","[""Asian""]","No","Female","2000498","1143","i","learn","","","learn_trial","23.3333","110","out","0","1","","","","","","","","","","","","","","","","","","","","",""
"","","","","","canvas-keyboard-response","105","284133","0.0-12.0-3.18","2d_cat_multi_stim_exp1","2022-5-4","12:58:35","25","75","3","9","10","40","30","120","89","20","[""Asian""]","No","Female","2000498","null","null","learn_feedback","","","learn_feedback","23.3333","110","out","","","","","","","","","","","","","","","","","","","","","","",""
"","","","","","canvas-keyboard-response","106","284193","0.0-12.0-4.18","2d_cat_multi_stim_exp1","2022-5-4","12:58:35","25","75","3","9","10","40","30","120","89","20","[""Asian""]","No","Female","2000498","null","null","","","","clear_screen","","","","","","","","","","","","","","","","","","","","","","","","","",""
"","","","","","canvas-keyboard-response","107","284706","0.0-12.0-0.19","2d_cat_multi_stim_exp1","2022-5-4","12:58:35","25","75","3","9","10","40","30","120","89","20","[""Asian""]","No","Female","2000498","null","null","","","","fixation","","","","","","","","","","","","","","","","","","","","","","","","","",""
"","","","","","canvas-keyboard-response","108","285216","0.0-12.0-1.19","2d_cat_multi_stim_exp1","2022-5-4","12:58:35","25","75","3","9","10","40","30","120","89","20","[""Asian""]","No","Female","2000498","null","null","","","","clear_screen","","","","","","","","","","","","","","","","","","","","","","","","","",""
"","","","","","canvas-keyboard-response","109","287384","0.0-12.0-2.19","2d_cat_multi_stim_exp1","2022-5-4","12:58:35","25","75","3","9","10","40","30","120","89","20","[""Asian""]","No","Female","2000498","2157","u","learn","","","learn_trial","30","110","out","1","0","","","","","","","","","","","","","","","","","","","","",""
"","","","","","canvas-keyboard-response","110","288394","0.0-12.0-3.19","2d_cat_multi_stim_exp1","2022-5-4","12:58:35","25","75","3","9","10","40","30","120","89","20","[""Asian""]","No","Female","2000498","null","null","learn_feedback","","","learn_feedback","30","110","out","","","","","","","","","","","","","","","","","","","","","","",""
"","","","","","canvas-keyboard-response","111","288453","0.0-12.0-4.19","2d_cat_multi_stim_exp1","2022-5-4","12:58:35","25","75","3","9","10","40","30","120","89","20","[""Asian""]","No","Female","2000498","null","null","","","","clear_screen","","","","","","","","","","","","","","","","","","","","","","","","","",""
"","","","","","canvas-keyboard-response","112","288961","0.0-12.0-0.20","2d_cat_multi_stim_exp1","2022-5-4","12:58:35","25","75","3","9","10","40","30","120","89","20","[""Asian""]","No","Female","2000498","null","null","","","","fixation","","","","","","","","","","","","","","","","","","","","","","","","","",""
"","","","","","canvas-keyboard-response","113","289471","0.0-12.0-1.20","2d_cat_multi_stim_exp1","2022-5-4","12:58:35","25","75","3","9","10","40","30","120","89","20","[""Asian""]","No","Female","2000498","null","null","","","","clear_screen","","","","","","","","","","","","","","","","","","","","","","","","","",""
"","","","","","canvas-keyboard-response","114","291352","0.0-12.0-2.20","2d_cat_multi_stim_exp1","2022-5-4","12:58:35","25","75","3","9","10","40","30","120","89","20","[""Asian""]","No","Female","2000498","1872","i","learn","","","learn_trial","25","93","in","0","0","","","","","","","","","","","","","","","","","","","","",""
"","","","","","canvas-keyboard-response","115","292362","0.0-12.0-3.20","2d_cat_multi_stim_exp1","2022-5-4","12:58:35","25","75","3","9","10","40","30","120","89","20","[""Asian""]","No","Female","2000498","null","null","learn_feedback","","","learn_feedback","25","93","in","","","","","","","","","","","","","","","","","","","","","","",""
"","","","","","canvas-keyboard-response","116","292420","0.0-12.0-4.20","2d_cat_multi_stim_exp1","2022-5-4","12:58:35","25","75","3","9","10","40","30","120","89","20","[""Asian""]","No","Female","2000498","null","null","","","","clear_screen","","","","","","","","","","","","","","","","","","","","","","","","","",""
"","","","","","canvas-keyboard-response","117","292930","0.0-12.0-0.21","2d_cat_multi_stim_exp1","2022-5-4","12:58:35","25","75","3","9","10","40","30","120","89","20","[""Asian""]","No","Female","2000498","null","null","","","","fixation","","","","","","","","","","","","","","","","","","","","","","","","","",""
"","","","","","canvas-keyboard-response","118","293438","0.0-12.0-1.21","2d_cat_multi_stim_exp1","2022-5-4","12:58:35","25","75","3","9","10","40","30","120","89","20","[""Asian""]","No","Female","2000498","null","null","","","","clear_screen","","","","","","","","","","","","","","","","","","","","","","","","","",""
"","","","","","canvas-keyboard-response","119","295712","0.0-12.0-2.21","2d_cat_multi_stim_exp1","2022-5-4","12:58:35","25","75","3","9","10","40","30","120","89","20","[""Asian""]","No","Female","2000498","2263","i","learn","","","learn_trial","25","75","in","0","0","","","","","","","","","","","","","","","","","","","","",""
"","","","","","canvas-keyboard-response","120","296721","0.0-12.0-3.21","2d_cat_multi_stim_exp1","2022-5-4","12:58:35","25","75","3","9","10","40","30","120","89","20","[""Asian""]","No","Female","2000498","null","null","learn_feedback","","","learn_feedback","25","75","in","","","","","","","","","","","","","","","","","","","","","","",""
"","","","","","canvas-keyboard-response","121","296780","0.0-12.0-4.21","2d_cat_multi_stim_exp1","2022-5-4","12:58:35","25","75","3","9","10","40","30","120","89","20","[""Asian""]","No","Female","2000498","null","null","","","","clear_screen","","","","","","","","","","","","","","","","","","","","","","","","","",""
"","","","","","canvas-keyboard-response","122","297292","0.0-12.0-0.22","2d_cat_multi_stim_exp1","2022-5-4","12:58:35","25","75","3","9","10","40","30","120","89","20","[""Asian""]","No","Female","2000498","null","null","","","","fixation","","","","","","","","","","","","","","","","","","","","","","","","","",""
"","","","","","canvas-keyboard-response","123","297801","0.0-12.0-1.22","2d_cat_multi_stim_exp1","2022-5-4","12:58:35","25","75","3","9","10","40","30","120","89","20","[""Asian""]","No","Female","2000498","null","null","","","","clear_screen","","","","","","","","","","","","","","","","","","","","","","","","","",""
"","","","","","canvas-keyboard-response","124","301183","0.0-12.0-2.22","2d_cat_multi_stim_exp1","2022-5-4","12:58:35","25","75","3","9","10","40","30","120","89","20","[""Asian""]","No","Female","2000498","3373","i","learn","","","learn_trial","13.3333","110","out","0","1","","","","","","","","","","","","","","","","","","","","",""
"","","","","","canvas-keyboard-response","125","301693","0.0-12.0-3.22","2d_cat_multi_stim_exp1","2022-5-4","12:58:35","25","75","3","9","10","40","30","120","89","20","[""Asian""]","No","Female","2000498","null","null","learn_feedback","","","learn_feedback","13.3333","110","out","","","","","","","","","","","","","","","","","","","","","","",""
"","","","","","canvas-keyboard-response","126","301752","0.0-12.0-4.22","2d_cat_multi_stim_exp1","2022-5-4","12:58:35","25","75","3","9","10","40","30","120","89","20","[""Asian""]","No","Female","2000498","null","null","","","","clear_screen","","","","","","","","","","","","","","","","","","","","","","","","","",""
"","","","","","canvas-keyboard-response","127","302260","0.0-12.0-0.23","2d_cat_multi_stim_exp1","2022-5-4","12:58:35","25","75","3","9","10","40","30","120","89","20","[""Asian""]","No","Female","2000498","null","null","","","","fixation","","","","","","","","","","","","","","","","","","","","","","","","","",""
"","","","","","canvas-keyboard-response","128","302770","0.0-12.0-1.23","2d_cat_multi_stim_exp1","2022-5-4","12:58:35","25","75","3","9","10","40","30","120","89","20","[""Asian""]","No","Female","2000498","null","null","","","","clear_screen","","","","","","","","","","","","","","","","","","","","","","","","","",""
"","","","","","canvas-keyboard-response","129","304471","0.0-12.0-2.23","2d_cat_multi_stim_exp1","2022-5-4","12:58:35","25","75","3","9","10","40","30","120","89","20","[""Asian""]","No","Female","2000498","1690","u","learn","","","learn_trial","40","40","out","1","0","","","","","","","","","","","","","","","","","","","","",""
"","","","","","canvas-keyboard-response","130","305481","0.0-12.0-3.23","2d_cat_multi_stim_exp1","2022-5-4","12:58:35","25","75","3","9","10","40","30","120","89","20","[""Asian""]","No","Female","2000498","null","null","learn_feedback","","","learn_feedback","40","40","out","","","","","","","","","","","","","","","","","","","","","","",""
"","","","","","canvas-keyboard-response","131","305540","0.0-12.0-4.23","2d_cat_multi_stim_exp1","2022-5-4","12:58:35","25","75","3","9","10","40","30","120","89","20","[""Asian""]","No","Female","2000498","null","null","","","","clear_screen","","","","","","","","","","","","","","","","","","","","","","","","","",""
"","","","","","canvas-keyboard-response","132","306050","0.0-12.0-0.24","2d_cat_multi_stim_exp1","2022-5-4","12:58:35","25","75","3","9","10","40","30","120","89","20","[""Asian""]","No","Female","2000498","null","null","","","","fixation","","","","","","","","","","","","","","","","","","","","","","","","","",""
"","","","","","canvas-keyboard-response","133","306559","0.0-12.0-1.24","2d_cat_multi_stim_exp1","2022-5-4","12:58:35","25","75","3","9","10","40","30","120","89","20","[""Asian""]","No","Female","2000498","null","null","","","","clear_screen","","","","","","","","","","","","","","","","","","","","","","","","","",""
"","","","","","canvas-keyboard-response","134","308104","0.0-12.0-2.24","2d_cat_multi_stim_exp1","2022-5-4","12:58:35","25","75","3","9","10","40","30","120","89","20","[""Asian""]","No","Female","2000498","1535","u","learn","","","learn_trial","25.4027","66.0815","in","1","1","","","","","","","","","","","","","","","","","","","","",""
"","","","","","canvas-keyboard-response","135","308613","0.0-12.0-3.24","2d_cat_multi_stim_exp1","2022-5-4","12:58:35","25","75","3","9","10","40","30","120","89","20","[""Asian""]","No","Female","2000498","null","null","learn_feedback","","","learn_feedback","25.4027","66.0815","in","","","","","","","","","","","","","","","","","","","","","","",""
"","","","","","canvas-keyboard-response","136","308672","0.0-12.0-4.24","2d_cat_multi_stim_exp1","2022-5-4","12:58:35","25","75","3","9","10","40","30","120","89","20","[""Asian""]","No","Female","2000498","null","null","","","","clear_screen","","","","","","","","","","","","","","","","","","","","","","","","","",""
"","","","","","canvas-keyboard-response","137","309182","0.0-12.0-0.25","2d_cat_multi_stim_exp1","2022-5-4","12:58:35","25","75","3","9","10","40","30","120","89","20","[""Asian""]","No","Female","2000498","null","null","","","","fixation","","","","","","","","","","","","","","","","","","","","","","","","","",""
"","","","","","canvas-keyboard-response","138","309695","0.0-12.0-1.25","2d_cat_multi_stim_exp1","2022-5-4","12:58:35","25","75","3","9","10","40","30","120","89","20","[""Asian""]","No","Female","2000498","null","null","","","","clear_screen","","","","","","","","","","","","","","","","","","","","","","","","","",""
"","","","","","canvas-keyboard-response","139","311335","0.0-12.0-2.25","2d_cat_multi_stim_exp1","2022-5-4","12:58:35","25","75","3","9","10","40","30","120","89","20","[""Asian""]","No","Female","2000498","1628","u","learn","","","learn_trial","25","75","in","1","1","","","","","","","","","","","","","","","","","","","","",""
"","","","","","canvas-keyboard-response","140","311849","0.0-12.0-3.25","2d_cat_multi_stim_exp1","2022-5-4","12:58:35","25","75","3","9","10","40","30","120","89","20","[""Asian""]","No","Female","2000498","null","null","learn_feedback","","","learn_feedback","25","75","in","","","","","","","","","","","","","","","","","","","","","","",""
"","","","","","canvas-keyboard-response","141","311909","0.0-12.0-4.25","2d_cat_multi_stim_exp1","2022-5-4","12:58:35","25","75","3","9","10","40","30","120","89","20","[""Asian""]","No","Female","2000498","null","null","","","","clear_screen","","","","","","","","","","","","","","","","","","","","","","","","","",""
"","","","","","canvas-keyboard-response","142","312419","0.0-12.0-0.26","2d_cat_multi_stim_exp1","2022-5-4","12:58:35","25","75","3","9","10","40","30","120","89","20","[""Asian""]","No","Female","2000498","null","null","","","","fixation","","","","","","","","","","","","","","","","","","","","","","","","","",""
"","","","","","canvas-keyboard-response","143","312928","0.0-12.0-1.26","2d_cat_multi_stim_exp1","2022-5-4","12:58:35","25","75","3","9","10","40","30","120","89","20","[""Asian""]","No","Female","2000498","null","null","","","","clear_screen","","","","","","","","","","","","","","","","","","","","","","","","","",""
"","","","","","canvas-keyboard-response","144","314208","0.0-12.0-2.26","2d_cat_multi_stim_exp1","2022-5-4","12:58:35","25","75","3","9","10","40","30","120","89","20","[""Asian""]","No","Female","2000498","1269","u","learn","","","learn_trial","27.8087","71.8376","in","1","1","","","","","","","","","","","","","","","","","","","","",""
"","","","","","canvas-keyboard-response","145","314717","0.0-12.0-3.26","2d_cat_multi_stim_exp1","2022-5-4","12:58:35","25","75","3","9","10","40","30","120","89","20","[""Asian""]","No","Female","2000498","null","null","learn_feedback","","","learn_feedback","27.8087","71.8376","in","","","","","","","","","","","","","","","","","","","","","","",""
"","","","","","canvas-keyboard-response","146","314777","0.0-12.0-4.26","2d_cat_multi_stim_exp1","2022-5-4","12:58:35","25","75","3","9","10","40","30","120","89","20","[""Asian""]","No","Female","2000498","null","null","","","","clear_screen","","","","","","","","","","","","","","","","","","","","","","","","","",""
"","","","","","canvas-keyboard-response","147","315286","0.0-12.0-0.27","2d_cat_multi_stim_exp1","2022-5-4","12:58:35","25","75","3","9","10","40","30","120","89","20","[""Asian""]","No","Female","2000498","null","null","","","","fixation","","","","","","","","","","","","","","","","","","","","","","","","","",""
"","","","","","canvas-keyboard-response","148","315797","0.0-12.0-1.27","2d_cat_multi_stim_exp1","2022-5-4","12:58:35","25","75","3","9","10","40","30","120","89","20","[""Asian""]","No","Female","2000498","null","null","","","","clear_screen","","","","","","","","","","","","","","","","","","","","","","","","","",""
"","","","","","canvas-keyboard-response","149","316575","0.0-12.0-2.27","2d_cat_multi_stim_exp1","2022-5-4","12:58:35","25","75","3","9","10","40","30","120","89","20","[""Asian""]","No","Female","2000498","770","u","learn","","","learn_trial","25","75","in","1","1","","","","","","","","","","","","","","","","","","","","",""
"","","","","","canvas-keyboard-response","150","317084","0.0-12.0-3.27","2d_cat_multi_stim_exp1","2022-5-4","12:58:35","25","75","3","9","10","40","30","120","89","20","[""Asian""]","No","Female","2000498","null","null","learn_feedback","","","learn_feedback","25","75","in","","","","","","","","","","","","","","","","","","","","","","",""
"","","","","","canvas-keyboard-response","151","317144","0.0-12.0-4.27","2d_cat_multi_stim_exp1","2022-5-4","12:58:35","25","75","3","9","10","40","30","120","89","20","[""Asian""]","No","Female","2000498","null","null","","","","clear_screen","","","","","","","","","","","","","","","","","","","","","","","","","",""
"","","","","","canvas-keyboard-response","152","317653","0.0-12.0-0.28","2d_cat_multi_stim_exp1","2022-5-4","12:58:35","25","75","3","9","10","40","30","120","89","20","[""Asian""]","No","Female","2000498","null","null","","","","fixation","","","","","","","","","","","","","","","","","","","","","","","","","",""
"","","","","","canvas-keyboard-response","153","318164","0.0-12.0-1.28","2d_cat_multi_stim_exp1","2022-5-4","12:58:35","25","75","3","9","10","40","30","120","89","20","[""Asian""]","No","Female","2000498","null","null","","","","clear_screen","","","","","","","","","","","","","","","","","","","","","","","","","",""
"","","","","","canvas-keyboard-response","154","319431","0.0-12.0-2.28","2d_cat_multi_stim_exp1","2022-5-4","12:58:35","25","75","3","9","10","40","30","120","89","20","[""Asian""]","No","Female","2000498","1256","u","learn","","","learn_trial","40","90","out","1","0","","","","","","","","","","","","","","","","","","","","",""
"","","","","","canvas-keyboard-response","155","320441","0.0-12.0-3.28","2d_cat_multi_stim_exp1","2022-5-4","12:58:35","25","75","3","9","10","40","30","120","89","20","[""Asian""]","No","Female","2000498","null","null","learn_feedback","","","learn_feedback","40","90","out","","","","","","","","","","","","","","","","","","","","","","",""
"","","","","","canvas-keyboard-response","156","320500","0.0-12.0-4.28","2d_cat_multi_stim_exp1","2022-5-4","12:58:35","25","75","3","9","10","40","30","120","89","20","[""Asian""]","No","Female","2000498","null","null","","","","clear_screen","","","","","","","","","","","","","","","","","","","","","","","","","",""
"","","","","","canvas-keyboard-response","157","321010","0.0-12.0-0.29","2d_cat_multi_stim_exp1","2022-5-4","12:58:35","25","75","3","9","10","40","30","120","89","20","[""Asian""]","No","Female","2000498","null","null","","","","fixation","","","","","","","","","","","","","","","","","","","","","","","","","",""
"","","","","","canvas-keyboard-response","158","321519","0.0-12.0-1.29","2d_cat_multi_stim_exp1","2022-5-4","12:58:35","25","75","3","9","10","40","30","120","89","20","[""Asian""]","No","Female","2000498","null","null","","","","clear_screen","","","","","","","","","","","","","","","","","","","","","","","","","",""
"","","","","","canvas-keyboard-response","159","323183","0.0-12.0-2.29","2d_cat_multi_stim_exp1","2022-5-4","12:58:35","25","75","3","9","10","40","30","120","89","20","[""Asian""]","No","Female","2000498","1655","i","learn","","","learn_trial","33.3333","40","out","0","1","","","","","","","","","","","","","","","","","","","","",""
"","","","","","canvas-keyboard-response","160","323694","0.0-12.0-3.29","2d_cat_multi_stim_exp1","2022-5-4","12:58:35","25","75","3","9","10","40","30","120","89","20","[""Asian""]","No","Female","2000498","null","null","learn_feedback","","","learn_feedback","33.3333","40","out","","","","","","","","","","","","","","","","","","","","","","",""
"","","","","","canvas-keyboard-response","161","323752","0.0-12.0-4.29","2d_cat_multi_stim_exp1","2022-5-4","12:58:35","25","75","3","9","10","40","30","120","89","20","[""Asian""]","No","Female","2000498","null","null","","","","clear_screen","","","","","","","","","","","","","","","","","","","","","","","","","",""
"","","","","","canvas-keyboard-response","162","324261","0.0-12.0-0.30","2d_cat_multi_stim_exp1","2022-5-4","12:58:35","25","75","3","9","10","40","30","120","89","20","[""Asian""]","No","Female","2000498","null","null","","","","fixation","","","","","","","","","","","","","","","","","","","","","","","","","",""
"","","","","","canvas-keyboard-response","163","324771","0.0-12.0-1.30","2d_cat_multi_stim_exp1","2022-5-4","12:58:35","25","75","3","9","10","40","30","120","89","20","[""Asian""]","No","Female","2000498","null","null","","","","clear_screen","","","","","","","","","","","","","","","","","","","","","","","","","",""
"","","","","","canvas-keyboard-response","164","326223","0.0-12.0-2.30","2d_cat_multi_stim_exp1","2022-5-4","12:58:35","25","75","3","9","10","40","30","120","89","20","[""Asian""]","No","Female","2000498","1443","i","learn","","","learn_trial","36.6667","110","out","0","1","","","","","","","","","","","","","","","","","","","","",""
"","","","","","canvas-keyboard-response","165","326733","0.0-12.0-3.30","2d_cat_multi_stim_exp1","2022-5-4","12:58:35","25","75","3","9","10","40","30","120","89","20","[""Asian""]","No","Female","2000498","null","null","learn_feedback","","","learn_feedback","36.6667","110","out","","","","","","","","","","","","","","","","","","","","","","",""
"","","","","","canvas-keyboard-response","166","326792","0.0-12.0-4.30","2d_cat_multi_stim_exp1","2022-5-4","12:58:35","25","75","3","9","10","40","30","120","89","20","[""Asian""]","No","Female","2000498","null","null","","","","clear_screen","","","","","","","","","","","","","","","","","","","","","","","","","",""
"","","","","","canvas-keyboard-response","167","327301","0.0-12.0-0.31","2d_cat_multi_stim_exp1","2022-5-4","12:58:35","25","75","3","9","10","40","30","120","89","20","[""Asian""]","No","Female","2000498","null","null","","","","fixation","","","","","","","","","","","","","","","","","","","","","","","","","",""
"","","","","","canvas-keyboard-response","168","327811","0.0-12.0-1.31","2d_cat_multi_stim_exp1","2022-5-4","12:58:35","25","75","3","9","10","40","30","120","89","20","[""Asian""]","No","Female","2000498","null","null","","","","clear_screen","","","","","","","","","","","","","","","","","","","","","","","","","",""
"","","","","","canvas-keyboard-response","169","328967","0.0-12.0-2.31","2d_cat_multi_stim_exp1","2022-5-4","12:58:35","25","75","3","9","10","40","30","120","89","20","[""Asian""]","No","Female","2000498","1144","u","learn","","","learn_trial","25","75","in","1","1","","","","","","","","","","","","","","","","","","","","",""
"","","","","","canvas-keyboard-response","170","329478","0.0-12.0-3.31","2d_cat_multi_stim_exp1","2022-5-4","12:58:35","25","75","3","9","10","40","30","120","89","20","[""Asian""]","No","Female","2000498","null","null","learn_feedback","","","learn_feedback","25","75","in","","","","","","","","","","","","","","","","","","","","","","",""
"","","","","","canvas-keyboard-response","171","329537","0.0-12.0-4.31","2d_cat_multi_stim_exp1","2022-5-4","12:58:35","25","75","3","9","10","40","30","120","89","20","[""Asian""]","No","Female","2000498","null","null","","","","clear_screen","","","","","","","","","","","","","","","","","","","","","","","","","",""
"","","","","","canvas-keyboard-response","172","330046","0.0-12.0-0.32","2d_cat_multi_stim_exp1","2022-5-4","12:58:35","25","75","3","9","10","40","30","120","89","20","[""Asian""]","No","Female","2000498","null","null","","","","fixation","","","","","","","","","","","","","","","","","","","","","","","","","",""
"","","","","","canvas-keyboard-response","173","330555","0.0-12.0-1.32","2d_cat_multi_stim_exp1","2022-5-4","12:58:35","25","75","3","9","10","40","30","120","89","20","[""Asian""]","No","Female","2000498","null","null","","","","clear_screen","","","","","","","","","","","","","","","","","","","","","","","","","",""
"","","","","","canvas-keyboard-response","174","331870","0.0-12.0-2.32","2d_cat_multi_stim_exp1","2022-5-4","12:58:35","25","75","3","9","10","40","30","120","89","20","[""Asian""]","No","Female","2000498","1306","u","learn","","","learn_trial","25","75","in","1","1","","","","","","","","","","","","","","","","","","","","",""
"","","","","","canvas-keyboard-response","175","332381","0.0-12.0-3.32","2d_cat_multi_stim_exp1","2022-5-4","12:58:35","25","75","3","9","10","40","30","120","89","20","[""Asian""]","No","Female","2000498","null","null","learn_feedback","","","learn_feedback","25","75","in","","","","","","","","","","","","","","","","","","","","","","",""
"","","","","","canvas-keyboard-response","176","332440","0.0-12.0-4.32","2d_cat_multi_stim_exp1","2022-5-4","12:58:35","25","75","3","9","10","40","30","120","89","20","[""Asian""]","No","Female","2000498","null","null","","","","clear_screen","","","","","","","","","","","","","","","","","","","","","","","","","",""
"","","","","","canvas-keyboard-response","177","332949","0.0-12.0-0.33","2d_cat_multi_stim_exp1","2022-5-4","12:58:35","25","75","3","9","10","40","30","120","89","20","[""Asian""]","No","Female","2000498","null","null","","","","fixation","","","","","","","","","","","","","","","","","","","","","","","","","",""
"","","","","","canvas-keyboard-response","178","333459","0.0-12.0-1.33","2d_cat_multi_stim_exp1","2022-5-4","12:58:35","25","75","3","9","10","40","30","120","89","20","[""Asian""]","No","Female","2000498","null","null","","","","clear_screen","","","","","","","","","","","","","","","","","","","","","","","","","",""
"","","","","","canvas-keyboard-response","179","335199","0.0-12.0-2.33","2d_cat_multi_stim_exp1","2022-5-4","12:58:35","25","75","3","9","10","40","30","120","89","20","[""Asian""]","No","Female","2000498","1731","i","learn","","","learn_trial","26.6667","100","out","0","1","","","","","","","","","","","","","","","","","","","","",""
"","","","","","canvas-keyboard-response","180","335709","0.0-12.0-3.33","2d_cat_multi_stim_exp1","2022-5-4","12:58:35","25","75","3","9","10","40","30","120","89","20","[""Asian""]","No","Female","2000498","null","null","learn_feedback","","","learn_feedback","26.6667","100","out","","","","","","","","","","","","","","","","","","","","","","",""
"","","","","","canvas-keyboard-response","181","335768","0.0-12.0-4.33","2d_cat_multi_stim_exp1","2022-5-4","12:58:35","25","75","3","9","10","40","30","120","89","20","[""Asian""]","No","Female","2000498","null","null","","","","clear_screen","","","","","","","","","","","","","","","","","","","","","","","","","",""
"","","","","","canvas-keyboard-response","182","336277","0.0-12.0-0.34","2d_cat_multi_stim_exp1","2022-5-4","12:58:35","25","75","3","9","10","40","30","120","89","20","[""Asian""]","No","Female","2000498","null","null","","","","fixation","","","","","","","","","","","","","","","","","","","","","","","","","",""
"","","","","","canvas-keyboard-response","183","336787","0.0-12.0-1.34","2d_cat_multi_stim_exp1","2022-5-4","12:58:35","25","75","3","9","10","40","30","120","89","20","[""Asian""]","No","Female","2000498","null","null","","","","clear_screen","","","","","","","","","","","","","","","","","","","","","","","","","",""
"","","","","","canvas-keyboard-response","184","338335","0.0-12.0-2.34","2d_cat_multi_stim_exp1","2022-5-4","12:58:35","25","75","3","9","10","40","30","120","89","20","[""Asian""]","No","Female","2000498","1539","u","learn","","","learn_trial","30","80","out","1","0","","","","","","","","","","","","","","","","","","","","",""
"","","","","","canvas-keyboard-response","185","339345","0.0-12.0-3.34","2d_cat_multi_stim_exp1","2022-5-4","12:58:35","25","75","3","9","10","40","30","120","89","20","[""Asian""]","No","Female","2000498","null","null","learn_feedback","","","learn_feedback","30","80","out","","","","","","","","","","","","","","","","","","","","","","",""
"","","","","","canvas-keyboard-response","186","339403","0.0-12.0-4.34","2d_cat_multi_stim_exp1","2022-5-4","12:58:35","25","75","3","9","10","40","30","120","89","20","[""Asian""]","No","Female","2000498","null","null","","","","clear_screen","","","","","","","","","","","","","","","","","","","","","","","","","",""
"","","","","","canvas-keyboard-response","187","339912","0.0-12.0-0.35","2d_cat_multi_stim_exp1","2022-5-4","12:58:35","25","75","3","9","10","40","30","120","89","20","[""Asian""]","No","Female","2000498","null","null","","","","fixation","","","","","","","","","","","","","","","","","","","","","","","","","",""
"","","","","","canvas-keyboard-response","188","340422","0.0-12.0-1.35","2d_cat_multi_stim_exp1","2022-5-4","12:58:35","25","75","3","9","10","40","30","120","89","20","[""Asian""]","No","Female","2000498","null","null","","","","clear_screen","","","","","","","","","","","","","","","","","","","","","","","","","",""
"","","","","","canvas-keyboard-response","189","341311","0.0-12.0-2.35","2d_cat_multi_stim_exp1","2022-5-4","12:58:35","25","75","3","9","10","40","30","120","89","20","[""Asian""]","No","Female","2000498","879","u","learn","","","learn_trial","20.7574","62.2721","in","1","1","","","","","","","","","","","","","","","","","","","","",""
"","","","","","canvas-keyboard-response","190","341821","0.0-12.0-3.35","2d_cat_multi_stim_exp1","2022-5-4","12:58:35","25","75","3","9","10","40","30","120","89","20","[""Asian""]","No","Female","2000498","null","null","learn_feedback","","","learn_feedback","20.7574","62.2721","in","","","","","","","","","","","","","","","","","","","","","","",""
"","","","","","canvas-keyboard-response","191","341880","0.0-12.0-4.35","2d_cat_multi_stim_exp1","2022-5-4","12:58:35","25","75","3","9","10","40","30","120","89","20","[""Asian""]","No","Female","2000498","null","null","","","","clear_screen","","","","","","","","","","","","","","","","","","","","","","","","","",""
"","","","","","canvas-keyboard-response","192","342389","0.0-12.0-0.36","2d_cat_multi_stim_exp1","2022-5-4","12:58:35","25","75","3","9","10","40","30","120","89","20","[""Asian""]","No","Female","2000498","null","null","","","","fixation","","","","","","","","","","","","","","","","","","","","","","","","","",""
"","","","","","canvas-keyboard-response","193","342898","0.0-12.0-1.36","2d_cat_multi_stim_exp1","2022-5-4","12:58:35","25","75","3","9","10","40","30","120","89","20","[""Asian""]","No","Female","2000498","null","null","","","","clear_screen","","","","","","","","","","","","","","","","","","","","","","","","","",""
"","","","","","canvas-keyboard-response","194","343966","0.0-12.0-2.36","2d_cat_multi_stim_exp1","2022-5-4","12:58:35","25","75","3","9","10","40","30","120","89","20","[""Asian""]","No","Female","2000498","1059","i","learn","","","learn_trial","16.6667","100","out","0","1","","","","","","","","","","","","","","","","","","","","",""
"","","","","","canvas-keyboard-response","195","344477","0.0-12.0-3.36","2d_cat_multi_stim_exp1","2022-5-4","12:58:35","25","75","3","9","10","40","30","120","89","20","[""Asian""]","No","Female","2000498","null","null","learn_feedback","","","learn_feedback","16.6667","100","out","","","","","","","","","","","","","","","","","","","","","","",""
"","","","","","canvas-keyboard-response","196","344539","0.0-12.0-4.36","2d_cat_multi_stim_exp1","2022-5-4","12:58:35","25","75","3","9","10","40","30","120","89","20","[""Asian""]","No","Female","2000498","null","null","","","","clear_screen","","","","","","","","","","","","","","","","","","","","","","","","","",""
"","","","","","canvas-keyboard-response","197","345051","0.0-12.0-0.37","2d_cat_multi_stim_exp1","2022-5-4","12:58:35","25","75","3","9","10","40","30","120","89","20","[""Asian""]","No","Female","2000498","null","null","","","","fixation","","","","","","","","","","","","","","","","","","","","","","","","","",""
"","","","","","canvas-keyboard-response","198","345562","0.0-12.0-1.37","2d_cat_multi_stim_exp1","2022-5-4","12:58:35","25","75","3","9","10","40","30","120","89","20","[""Asian""]","No","Female","2000498","null","null","","","","clear_screen","","","","","","","","","","","","","","","","","","","","","","","","","",""
"","","","","","canvas-keyboard-response","199","346623","0.0-12.0-2.37","2d_cat_multi_stim_exp1","2022-5-4","12:58:35","25","75","3","9","10","40","30","120","89","20","[""Asian""]","No","Female","2000498","1049","u","learn","","","learn_trial","25","75","in","1","1","","","","","","","","","","","","","","","","","","","","",""
"","","","","","canvas-keyboard-response","200","347132","0.0-12.0-3.37","2d_cat_multi_stim_exp1","2022-5-4","12:58:35","25","75","3","9","10","40","30","120","89","20","[""Asian""]","No","Female","2000498","null","null","learn_feedback","","","learn_feedback","25","75","in","","","","","","","","","","","","","","","","","","","","","","",""
"","","","","","canvas-keyboard-response","201","347192","0.0-12.0-4.37","2d_cat_multi_stim_exp1","2022-5-4","12:58:35","25","75","3","9","10","40","30","120","89","20","[""Asian""]","No","Female","2000498","null","null","","","","clear_screen","","","","","","","","","","","","","","","","","","","","","","","","","",""
"","","","","","canvas-keyboard-response","202","347703","0.0-12.0-0.38","2d_cat_multi_stim_exp1","2022-5-4","12:58:35","25","75","3","9","10","40","30","120","89","20","[""Asian""]","No","Female","2000498","null","null","","","","fixation","","","","","","","","","","","","","","","","","","","","","","","","","",""
"","","","","","canvas-keyboard-response","203","348213","0.0-12.0-1.38","2d_cat_multi_stim_exp1","2022-5-4","12:58:35","25","75","3","9","10","40","30","120","89","20","[""Asian""]","No","Female","2000498","null","null","","","","clear_screen","","","","","","","","","","","","","","","","","","","","","","","","","",""
"","","","","","canvas-keyboard-response","204","349528","0.0-12.0-2.38","2d_cat_multi_stim_exp1","2022-5-4","12:58:35","25","75","3","9","10","40","30","120","89","20","[""Asian""]","No","Female","2000498","1305","u","learn","","","learn_trial","25","75","in","1","1","","","","","","","","","","","","","","","","","","","","",""
"","","","","","canvas-keyboard-response","205","350038","0.0-12.0-3.38","2d_cat_multi_stim_exp1","2022-5-4","12:58:35","25","75","3","9","10","40","30","120","89","20","[""Asian""]","No","Female","2000498","null","null","learn_feedback","","","learn_feedback","25","75","in","","","","","","","","","","","","","","","","","","","","","","",""
"","","","","","canvas-keyboard-response","206","350098","0.0-12.0-4.38","2d_cat_multi_stim_exp1","2022-5-4","12:58:35","25","75","3","9","10","40","30","120","89","20","[""Asian""]","No","Female","2000498","null","null","","","","clear_screen","","","","","","","","","","","","","","","","","","","","","","","","","",""
"","","","","","canvas-keyboard-response","207","350608","0.0-12.0-0.39","2d_cat_multi_stim_exp1","2022-5-4","12:58:35","25","75","3","9","10","40","30","120","89","20","[""Asian""]","No","Female","2000498","null","null","","","","fixation","","","","","","","","","","","","","","","","","","","","","","","","","",""
"","","","","","canvas-keyboard-response","208","351118","0.0-12.0-1.39","2d_cat_multi_stim_exp1","2022-5-4","12:58:35","25","75","3","9","10","40","30","120","89","20","[""Asian""]","No","Female","2000498","null","null","","","","clear_screen","","","","","","","","","","","","","","","","","","","","","","","","","",""
"","","","","","canvas-keyboard-response","209","351887","0.0-12.0-2.39","2d_cat_multi_stim_exp1","2022-5-4","12:58:35","25","75","3","9","10","40","30","120","89","20","[""Asian""]","No","Female","2000498","759","i","learn","","","learn_trial","40","120","out","0","1","","","","","","","","","","","","","","","","","","","","",""
"","","","","","canvas-keyboard-response","210","352397","0.0-12.0-3.39","2d_cat_multi_stim_exp1","2022-5-4","12:58:35","25","75","3","9","10","40","30","120","89","20","[""Asian""]","No","Female","2000498","null","null","learn_feedback","","","learn_feedback","40","120","out","","","","","","","","","","","","","","","","","","","","","","",""
"","","","","","canvas-keyboard-response","211","352456","0.0-12.0-4.39","2d_cat_multi_stim_exp1","2022-5-4","12:58:35","25","75","3","9","10","40","30","120","89","20","[""Asian""]","No","Female","2000498","null","null","","","","clear_screen","","","","","","","","","","","","","","","","","","","","","","","","","",""
"","","","","","canvas-keyboard-response","212","352966","0.0-12.0-0.40","2d_cat_multi_stim_exp1","2022-5-4","12:58:35","25","75","3","9","10","40","30","120","89","20","[""Asian""]","No","Female","2000498","null","null","","","","fixation","","","","","","","","","","","","","","","","","","","","","","","","","",""
"","","","","","canvas-keyboard-response","213","353476","0.0-12.0-1.40","2d_cat_multi_stim_exp1","2022-5-4","12:58:35","25","75","3","9","10","40","30","120","89","20","[""Asian""]","No","Female","2000498","null","null","","","","clear_screen","","","","","","","","","","","","","","","","","","","","","","","","","",""
"","","","","","canvas-keyboard-response","214","354447","0.0-12.0-2.40","2d_cat_multi_stim_exp1","2022-5-4","12:58:35","25","75","3","9","10","40","30","120","89","20","[""Asian""]","No","Female","2000498","962","u","learn","","","learn_trial","25","75","in","1","1","","","","","","","","","","","","","","","","","","","","",""
"","","","","","canvas-keyboard-response","215","354958","0.0-12.0-3.40","2d_cat_multi_stim_exp1","2022-5-4","12:58:35","25","75","3","9","10","40","30","120","89","20","[""Asian""]","No","Female","2000498","null","null","learn_feedback","","","learn_feedback","25","75","in","","","","","","","","","","","","","","","","","","","","","","",""
"","","","","","canvas-keyboard-response","216","355016","0.0-12.0-4.40","2d_cat_multi_stim_exp1","2022-5-4","12:58:35","25","75","3","9","10","40","30","120","89","20","[""Asian""]","No","Female","2000498","null","null","","","","clear_screen","","","","","","","","","","","","","","","","","","","","","","","","","",""
"","","","","","canvas-keyboard-response","217","355528","0.0-12.0-0.41","2d_cat_multi_stim_exp1","2022-5-4","12:58:35","25","75","3","9","10","40","30","120","89","20","[""Asian""]","No","Female","2000498","null","null","","","","fixation","","","","","","","","","","","","","","","","","","","","","","","","","",""
"","","","","","canvas-keyboard-response","218","356038","0.0-12.0-1.41","2d_cat_multi_stim_exp1","2022-5-4","12:58:35","25","75","3","9","10","40","30","120","89","20","[""Asian""]","No","Female","2000498","null","null","","","","clear_screen","","","","","","","","","","","","","","","","","","","","","","","","","",""
"","","","","","canvas-keyboard-response","219","357591","0.0-12.0-2.41","2d_cat_multi_stim_exp1","2022-5-4","12:58:35","25","75","3","9","10","40","30","120","89","20","[""Asian""]","No","Female","2000498","1542","u","learn","","","learn_trial","25","75","in","1","1","","","","","","","","","","","","","","","","","","","","",""
"","","","","","canvas-keyboard-response","220","358101","0.0-12.0-3.41","2d_cat_multi_stim_exp1","2022-5-4","12:58:35","25","75","3","9","10","40","30","120","89","20","[""Asian""]","No","Female","2000498","null","null","learn_feedback","","","learn_feedback","25","75","in","","","","","","","","","","","","","","","","","","","","","","",""
"","","","","","canvas-keyboard-response","221","358160","0.0-12.0-4.41","2d_cat_multi_stim_exp1","2022-5-4","12:58:35","25","75","3","9","10","40","30","120","89","20","[""Asian""]","No","Female","2000498","null","null","","","","clear_screen","","","","","","","","","","","","","","","","","","","","","","","","","",""
"","","","","","canvas-keyboard-response","222","358669","0.0-12.0-0.42","2d_cat_multi_stim_exp1","2022-5-4","12:58:35","25","75","3","9","10","40","30","120","89","20","[""Asian""]","No","Female","2000498","null","null","","","","fixation","","","","","","","","","","","","","","","","","","","","","","","","","",""
"","","","","","canvas-keyboard-response","223","359179","0.0-12.0-1.42","2d_cat_multi_stim_exp1","2022-5-4","12:58:35","25","75","3","9","10","40","30","120","89","20","[""Asian""]","No","Female","2000498","null","null","","","","clear_screen","","","","","","","","","","","","","","","","","","","","","","","","","",""
"","","","","","canvas-keyboard-response","224","360015","0.0-12.0-2.42","2d_cat_multi_stim_exp1","2022-5-4","12:58:35","25","75","3","9","10","40","30","120","89","20","[""Asian""]","No","Female","2000498","826","u","learn","","","learn_trial","25","75","in","1","1","","","","","","","","","","","","","","","","","","","","",""
"","","","","","canvas-keyboard-response","225","360525","0.0-12.0-3.42","2d_cat_multi_stim_exp1","2022-5-4","12:58:35","25","75","3","9","10","40","30","120","89","20","[""Asian""]","No","Female","2000498","null","null","learn_feedback","","","learn_feedback","25","75","in","","","","","","","","","","","","","","","","","","","","","","",""
"","","","","","canvas-keyboard-response","226","360584","0.0-12.0-4.42","2d_cat_multi_stim_exp1","2022-5-4","12:58:35","25","75","3","9","10","40","30","120","89","20","[""Asian""]","No","Female","2000498","null","null","","","","clear_screen","","","","","","","","","","","","","","","","","","","","","","","","","",""
"","","","","","canvas-keyboard-response","227","361094","0.0-12.0-0.43","2d_cat_multi_stim_exp1","2022-5-4","12:58:35","25","75","3","9","10","40","30","120","89","20","[""Asian""]","No","Female","2000498","null","null","","","","fixation","","","","","","","","","","","","","","","","","","","","","","","","","",""
"","","","","","canvas-keyboard-response","228","361604","0.0-12.0-1.43","2d_cat_multi_stim_exp1","2022-5-4","12:58:35","25","75","3","9","10","40","30","120","89","20","[""Asian""]","No","Female","2000498","null","null","","","","clear_screen","","","","","","","","","","","","","","","","","","","","","","","","","",""
"","","","","","canvas-keyboard-response","229","362335","0.0-12.0-2.43","2d_cat_multi_stim_exp1","2022-5-4","12:58:35","25","75","3","9","10","40","30","120","89","20","[""Asian""]","No","Female","2000498","722","i","learn","","","learn_trial","26.6667","50","out","0","1","","","","","","","","","","","","","","","","","","","","",""
"","","","","","canvas-keyboard-response","230","362845","0.0-12.0-3.43","2d_cat_multi_stim_exp1","2022-5-4","12:58:35","25","75","3","9","10","40","30","120","89","20","[""Asian""]","No","Female","2000498","null","null","learn_feedback","","","learn_feedback","26.6667","50","out","","","","","","","","","","","","","","","","","","","","","","",""
"","","","","","canvas-keyboard-response","231","362903","0.0-12.0-4.43","2d_cat_multi_stim_exp1","2022-5-4","12:58:35","25","75","3","9","10","40","30","120","89","20","[""Asian""]","No","Female","2000498","null","null","","","","clear_screen","","","","","","","","","","","","","","","","","","","","","","","","","",""
"","","","","","canvas-keyboard-response","232","363414","0.0-12.0-0.44","2d_cat_multi_stim_exp1","2022-5-4","12:58:35","25","75","3","9","10","40","30","120","89","20","[""Asian""]","No","Female","2000498","null","null","","","","fixation","","","","","","","","","","","","","","","","","","","","","","","","","",""
"","","","","","canvas-keyboard-response","233","363925","0.0-12.0-1.44","2d_cat_multi_stim_exp1","2022-5-4","12:58:35","25","75","3","9","10","40","30","120","89","20","[""Asian""]","No","Female","2000498","null","null","","","","clear_screen","","","","","","","","","","","","","","","","","","","","","","","","","",""
"","","","","","canvas-keyboard-response","234","366703","0.0-12.0-2.44","2d_cat_multi_stim_exp1","2022-5-4","12:58:35","25","75","3","9","10","40","30","120","89","20","[""Asian""]","No","Female","2000498","2769","i","learn","","","learn_trial","36.6667","90","out","0","1","","","","","","","","","","","","","","","","","","","","",""
"","","","","","canvas-keyboard-response","235","367213","0.0-12.0-3.44","2d_cat_multi_stim_exp1","2022-5-4","12:58:35","25","75","3","9","10","40","30","120","89","20","[""Asian""]","No","Female","2000498","null","null","learn_feedback","","","learn_feedback","36.6667","90","out","","","","","","","","","","","","","","","","","","","","","","",""
"","","","","","canvas-keyboard-response","236","367271","0.0-12.0-4.44","2d_cat_multi_stim_exp1","2022-5-4","12:58:35","25","75","3","9","10","40","30","120","89","20","[""Asian""]","No","Female","2000498","null","null","","","","clear_screen","","","","","","","","","","","","","","","","","","","","","","","","","",""
"","","","","","canvas-keyboard-response","237","367781","0.0-12.0-0.45","2d_cat_multi_stim_exp1","2022-5-4","12:58:35","25","75","3","9","10","40","30","120","89","20","[""Asian""]","No","Female","2000498","null","null","","","","fixation","","","","","","","","","","","","","","","","","","","","","","","","","",""
"","","","","","canvas-keyboard-response","238","368291","0.0-12.0-1.45","2d_cat_multi_stim_exp1","2022-5-4","12:58:35","25","75","3","9","10","40","30","120","89","20","[""Asian""]","No","Female","2000498","null","null","","","","clear_screen","","","","","","","","","","","","","","","","","","","","","","","","","",""
"","","","","","canvas-keyboard-response","239","369295","0.0-12.0-2.45","2d_cat_multi_stim_exp1","2022-5-4","12:58:35","25","75","3","9","10","40","30","120","89","20","[""Asian""]","No","Female","2000498","995","u","learn","","","learn_trial","25","75","in","1","1","","","","","","","","","","","","","","","","","","","","",""
"","","","","","canvas-keyboard-response","240","369805","0.0-12.0-3.45","2d_cat_multi_stim_exp1","2022-5-4","12:58:35","25","75","3","9","10","40","30","120","89","20","[""Asian""]","No","Female","2000498","null","null","learn_feedback","","","learn_feedback","25","75","in","","","","","","","","","","","","","","","","","","","","","","",""
"","","","","","canvas-keyboard-response","241","369865","0.0-12.0-4.45","2d_cat_multi_stim_exp1","2022-5-4","12:58:35","25","75","3","9","10","40","30","120","89","20","[""Asian""]","No","Female","2000498","null","null","","","","clear_screen","","","","","","","","","","","","","","","","","","","","","","","","","",""
"","","","","","canvas-keyboard-response","242","370374","0.0-12.0-0.46","2d_cat_multi_stim_exp1","2022-5-4","12:58:35","25","75","3","9","10","40","30","120","89","20","[""Asian""]","No","Female","2000498","null","null","","","","fixation","","","","","","","","","","","","","","","","","","","","","","","","","",""
"","","","","","canvas-keyboard-response","243","370883","0.0-12.0-1.46","2d_cat_multi_stim_exp1","2022-5-4","12:58:35","25","75","3","9","10","40","30","120","89","20","[""Asian""]","No","Female","2000498","null","null","","","","clear_screen","","","","","","","","","","","","","","","","","","","","","","","","","",""
"","","","","","canvas-keyboard-response","244","371718","0.0-12.0-2.46","2d_cat_multi_stim_exp1","2022-5-4","12:58:35","25","75","3","9","10","40","30","120","89","20","[""Asian""]","No","Female","2000498","827","u","learn","","","learn_trial","27.2592","80.9214","in","1","1","","","","","","","","","","","","","","","","","","","","",""
"","","","","","canvas-keyboard-response","245","372227","0.0-12.0-3.46","2d_cat_multi_stim_exp1","2022-5-4","12:58:35","25","75","3","9","10","40","30","120","89","20","[""Asian""]","No","Female","2000498","null","null","learn_feedback","","","learn_feedback","27.2592","80.9214","in","","","","","","","","","","","","","","","","","","","","","","",""
"","","","","","canvas-keyboard-response","246","372287","0.0-12.0-4.46","2d_cat_multi_stim_exp1","2022-5-4","12:58:35","25","75","3","9","10","40","30","120","89","20","[""Asian""]","No","Female","2000498","null","null","","","","clear_screen","","","","","","","","","","","","","","","","","","","","","","","","","",""
"","","","","","canvas-keyboard-response","247","372795","0.0-12.0-0.47","2d_cat_multi_stim_exp1","2022-5-4","12:58:35","25","75","3","9","10","40","30","120","89","20","[""Asian""]","No","Female","2000498","null","null","","","","fixation","","","","","","","","","","","","","","","","","","","","","","","","","",""
"","","","","","canvas-keyboard-response","248","373305","0.0-12.0-1.47","2d_cat_multi_stim_exp1","2022-5-4","12:58:35","25","75","3","9","10","40","30","120","89","20","[""Asian""]","No","Female","2000498","null","null","","","","clear_screen","","","","","","","","","","","","","","","","","","","","","","","","","",""
"","","","","","canvas-keyboard-response","249","374087","0.0-12.0-2.47","2d_cat_multi_stim_exp1","2022-5-4","12:58:35","25","75","3","9","10","40","30","120","89","20","[""Asian""]","No","Female","2000498","772","i","learn","","","learn_trial","16.6667","80","out","0","1","","","","","","","","","","","","","","","","","","","","",""
"","","","","","canvas-keyboard-response","250","374597","0.0-12.0-3.47","2d_cat_multi_stim_exp1","2022-5-4","12:58:35","25","75","3","9","10","40","30","120","89","20","[""Asian""]","No","Female","2000498","null","null","learn_feedback","","","learn_feedback","16.6667","80","out","","","","","","","","","","","","","","","","","","","","","","",""
"","","","","","canvas-keyboard-response","251","374656","0.0-12.0-4.47","2d_cat_multi_stim_exp1","2022-5-4","12:58:35","25","75","3","9","10","40","30","120","89","20","[""Asian""]","No","Female","2000498","null","null","","","","clear_screen","","","","","","","","","","","","","","","","","","","","","","","","","",""
"","","","","","canvas-keyboard-response","252","375165","0.0-12.0-0.48","2d_cat_multi_stim_exp1","2022-5-4","12:58:35","25","75","3","9","10","40","30","120","89","20","[""Asian""]","No","Female","2000498","null","null","","","","fixation","","","","","","","","","","","","","","","","","","","","","","","","","",""
"","","","","","canvas-keyboard-response","253","375675","0.0-12.0-1.48","2d_cat_multi_stim_exp1","2022-5-4","12:58:35","25","75","3","9","10","40","30","120","89","20","[""Asian""]","No","Female","2000498","null","null","","","","clear_screen","","","","","","","","","","","","","","","","","","","","","","","","","",""
"","","","","","canvas-keyboard-response","254","376407","0.0-12.0-2.48","2d_cat_multi_stim_exp1","2022-5-4","12:58:35","25","75","3","9","10","40","30","120","89","20","[""Asian""]","No","Female","2000498","723","i","learn","","","learn_trial","13.3333","90","out","0","1","","","","","","","","","","","","","","","","","","","","",""
"","","","","","canvas-keyboard-response","255","376917","0.0-12.0-3.48","2d_cat_multi_stim_exp1","2022-5-4","12:58:35","25","75","3","9","10","40","30","120","89","20","[""Asian""]","No","Female","2000498","null","null","learn_feedback","","","learn_feedback","13.3333","90","out","","","","","","","","","","","","","","","","","","","","","","",""
"","","","","","canvas-keyboard-response","256","376975","0.0-12.0-4.48","2d_cat_multi_stim_exp1","2022-5-4","12:58:35","25","75","3","9","10","40","30","120","89","20","[""Asian""]","No","Female","2000498","null","null","","","","clear_screen","","","","","","","","","","","","","","","","","","","","","","","","","",""
"","","","","","canvas-keyboard-response","257","377484","0.0-12.0-0.49","2d_cat_multi_stim_exp1","2022-5-4","12:58:35","25","75","3","9","10","40","30","120","89","20","[""Asian""]","No","Female","2000498","null","null","","","","fixation","","","","","","","","","","","","","","","","","","","","","","","","","",""
"","","","","","canvas-keyboard-response","258","377994","0.0-12.0-1.49","2d_cat_multi_stim_exp1","2022-5-4","12:58:35","25","75","3","9","10","40","30","120","89","20","[""Asian""]","No","Female","2000498","null","null","","","","clear_screen","","","","","","","","","","","","","","","","","","","","","","","","","",""
"","","","","","canvas-keyboard-response","259","378791","0.0-12.0-2.49","2d_cat_multi_stim_exp1","2022-5-4","12:58:35","25","75","3","9","10","40","30","120","89","20","[""Asian""]","No","Female","2000498","788","u","learn","","","learn_trial","25","75","in","1","1","","","","","","","","","","","","","","","","","","","","",""
"","","","","","canvas-keyboard-response","260","379301","0.0-12.0-3.49","2d_cat_multi_stim_exp1","2022-5-4","12:58:35","25","75","3","9","10","40","30","120","89","20","[""Asian""]","No","Female","2000498","null","null","learn_feedback","","","learn_feedback","25","75","in","","","","","","","","","","","","","","","","","","","","","","",""
"","","","","","canvas-keyboard-response","261","379360","0.0-12.0-4.49","2d_cat_multi_stim_exp1","2022-5-4","12:58:35","25","75","3","9","10","40","30","120","89","20","[""Asian""]","No","Female","2000498","null","null","","","","clear_screen","","","","","","","","","","","","","","","","","","","","","","","","","",""
"","","","","","canvas-keyboard-response","262","379869","0.0-12.0-0.50","2d_cat_multi_stim_exp1","2022-5-4","12:58:35","25","75","3","9","10","40","30","120","89","20","[""Asian""]","No","Female","2000498","null","null","","","","fixation","","","","","","","","","","","","","","","","","","","","","","","","","",""
"","","","","","canvas-keyboard-response","263","380378","0.0-12.0-1.50","2d_cat_multi_stim_exp1","2022-5-4","12:58:35","25","75","3","9","10","40","30","120","89","20","[""Asian""]","No","Female","2000498","null","null","","","","clear_screen","","","","","","","","","","","","","","","","","","","","","","","","","",""
"","","","","","canvas-keyboard-response","264","381455","0.0-12.0-2.50","2d_cat_multi_stim_exp1","2022-5-4","12:58:35","25","75","3","9","10","40","30","120","89","20","[""Asian""]","No","Female","2000498","1063","i","learn","","","learn_trial","10","30","out","0","1","","","","","","","","","","","","","","","","","","","","",""
"","","","","","canvas-keyboard-response","265","381965","0.0-12.0-3.50","2d_cat_multi_stim_exp1","2022-5-4","12:58:35","25","75","3","9","10","40","30","120","89","20","[""Asian""]","No","Female","2000498","null","null","learn_feedback","","","learn_feedback","10","30","out","","","","","","","","","","","","","","","","","","","","","","",""
"","","","","","canvas-keyboard-response","266","382024","0.0-12.0-4.50","2d_cat_multi_stim_exp1","2022-5-4","12:58:35","25","75","3","9","10","40","30","120","89","20","[""Asian""]","No","Female","2000498","null","null","","","","clear_screen","","","","","","","","","","","","","","","","","","","","","","","","","",""
"","","","","","canvas-keyboard-response","267","382533","0.0-12.0-0.51","2d_cat_multi_stim_exp1","2022-5-4","12:58:35","25","75","3","9","10","40","30","120","89","20","[""Asian""]","No","Female","2000498","null","null","","","","fixation","","","","","","","","","","","","","","","","","","","","","","","","","",""
"","","","","","canvas-keyboard-response","268","383043","0.0-12.0-1.51","2d_cat_multi_stim_exp1","2022-5-4","12:58:35","25","75","3","9","10","40","30","120","89","20","[""Asian""]","No","Female","2000498","null","null","","","","clear_screen","","","","","","","","","","","","","","","","","","","","","","","","","",""
"","","","","","canvas-keyboard-response","269","384318","0.0-12.0-2.51","2d_cat_multi_stim_exp1","2022-5-4","12:58:35","25","75","3","9","10","40","30","120","89","20","[""Asian""]","No","Female","2000498","1266","u","learn","","","learn_trial","20.7574","87.7279","in","1","1","","","","","","","","","","","","","","","","","","","","",""
"","","","","","canvas-keyboard-response","270","384828","0.0-12.0-3.51","2d_cat_multi_stim_exp1","2022-5-4","12:58:35","25","75","3","9","10","40","30","120","89","20","[""Asian""]","No","Female","2000498","null","null","learn_feedback","","","learn_feedback","20.7574","87.7279","in","","","","","","","","","","","","","","","","","","","","","","",""
"","","","","","canvas-keyboard-response","271","384887","0.0-12.0-4.51","2d_cat_multi_stim_exp1","2022-5-4","12:58:35","25","75","3","9","10","40","30","120","89","20","[""Asian""]","No","Female","2000498","null","null","","","","clear_screen","","","","","","","","","","","","","","","","","","","","","","","","","",""
"","","","","","canvas-keyboard-response","272","385403","0.0-12.0-0.52","2d_cat_multi_stim_exp1","2022-5-4","12:58:35","25","75","3","9","10","40","30","120","89","20","[""Asian""]","No","Female","2000498","null","null","","","","fixation","","","","","","","","","","","","","","","","","","","","","","","","","",""
"","","","","","canvas-keyboard-response","273","385913","0.0-12.0-1.52","2d_cat_multi_stim_exp1","2022-5-4","12:58:35","25","75","3","9","10","40","30","120","89","20","[""Asian""]","No","Female","2000498","null","null","","","","clear_screen","","","","","","","","","","","","","","","","","","","","","","","","","",""
"","","","","","canvas-keyboard-response","274","386527","0.0-12.0-2.52","2d_cat_multi_stim_exp1","2022-5-4","12:58:35","25","75","3","9","10","40","30","120","89","20","[""Asian""]","No","Female","2000498","604","u","learn","","","learn_trial","25","75","in","1","1","","","","","","","","","","","","","","","","","","","","",""
"","","","","","canvas-keyboard-response","275","387037","0.0-12.0-3.52","2d_cat_multi_stim_exp1","2022-5-4","12:58:35","25","75","3","9","10","40","30","120","89","20","[""Asian""]","No","Female","2000498","null","null","learn_feedback","","","learn_feedback","25","75","in","","","","","","","","","","","","","","","","","","","","","","",""
"","","","","","canvas-keyboard-response","276","387095","0.0-12.0-4.52","2d_cat_multi_stim_exp1","2022-5-4","12:58:35","25","75","3","9","10","40","30","120","89","20","[""Asian""]","No","Female","2000498","null","null","","","","clear_screen","","","","","","","","","","","","","","","","","","","","","","","","","",""
"","","","","","canvas-keyboard-response","277","387605","0.0-12.0-0.53","2d_cat_multi_stim_exp1","2022-5-4","12:58:35","25","75","3","9","10","40","30","120","89","20","[""Asian""]","No","Female","2000498","null","null","","","","fixation","","","","","","","","","","","","","","","","","","","","","","","","","",""
"","","","","","canvas-keyboard-response","278","388114","0.0-12.0-1.53","2d_cat_multi_stim_exp1","2022-5-4","12:58:35","25","75","3","9","10","40","30","120","89","20","[""Asian""]","No","Female","2000498","null","null","","","","clear_screen","","","","","","","","","","","","","","","","","","","","","","","","","",""
"","","","","","canvas-keyboard-response","279","388720","0.0-12.0-2.53","2d_cat_multi_stim_exp1","2022-5-4","12:58:35","25","75","3","9","10","40","30","120","89","20","[""Asian""]","No","Female","2000498","593","u","learn","","","learn_trial","25","75","in","1","1","","","","","","","","","","","","","","","","","","","","",""
"","","","","","canvas-keyboard-response","280","389232","0.0-12.0-3.53","2d_cat_multi_stim_exp1","2022-5-4","12:58:35","25","75","3","9","10","40","30","120","89","20","[""Asian""]","No","Female","2000498","null","null","learn_feedback","","","learn_feedback","25","75","in","","","","","","","","","","","","","","","","","","","","","","",""
"","","","","","canvas-keyboard-response","281","389293","0.0-12.0-4.53","2d_cat_multi_stim_exp1","2022-5-4","12:58:35","25","75","3","9","10","40","30","120","89","20","[""Asian""]","No","Female","2000498","null","null","","","","clear_screen","","","","","","","","","","","","","","","","","","","","","","","","","",""
"","","","","","canvas-keyboard-response","282","389805","0.0-12.0-0.54","2d_cat_multi_stim_exp1","2022-5-4","12:58:35","25","75","3","9","10","40","30","120","89","20","[""Asian""]","No","Female","2000498","null","null","","","","fixation","","","","","","","","","","","","","","","","","","","","","","","","","",""
"","","","","","canvas-keyboard-response","283","390316","0.0-12.0-1.54","2d_cat_multi_stim_exp1","2022-5-4","12:58:35","25","75","3","9","10","40","30","120","89","20","[""Asian""]","No","Female","2000498","null","null","","","","clear_screen","","","","","","","","","","","","","","","","","","","","","","","","","",""
"","","","","","canvas-keyboard-response","284","391023","0.0-12.0-2.54","2d_cat_multi_stim_exp1","2022-5-4","12:58:35","25","75","3","9","10","40","30","120","89","20","[""Asian""]","No","Female","2000498","698","i","learn","","","learn_trial","20","120","out","0","1","","","","","","","","","","","","","","","","","","","","",""
"","","","","","canvas-keyboard-response","285","391534","0.0-12.0-3.54","2d_cat_multi_stim_exp1","2022-5-4","12:58:35","25","75","3","9","10","40","30","120","89","20","[""Asian""]","No","Female","2000498","null","null","learn_feedback","","","learn_feedback","20","120","out","","","","","","","","","","","","","","","","","","","","","","",""
"","","","","","canvas-keyboard-response","286","391593","0.0-12.0-4.54","2d_cat_multi_stim_exp1","2022-5-4","12:58:35","25","75","3","9","10","40","30","120","89","20","[""Asian""]","No","Female","2000498","null","null","","","","clear_screen","","","","","","","","","","","","","","","","","","","","","","","","","",""
"","","","","","canvas-keyboard-response","287","392103","0.0-12.0-0.55","2d_cat_multi_stim_exp1","2022-5-4","12:58:35","25","75","3","9","10","40","30","120","89","20","[""Asian""]","No","Female","2000498","null","null","","","","fixation","","","","","","","","","","","","","","","","","","","","","","","","","",""
"","","","","","canvas-keyboard-response","288","392614","0.0-12.0-1.55","2d_cat_multi_stim_exp1","2022-5-4","12:58:35","25","75","3","9","10","40","30","120","89","20","[""Asian""]","No","Female","2000498","null","null","","","","clear_screen","","","","","","","","","","","","","","","","","","","","","","","","","",""
"","","","","","canvas-keyboard-response","289","393423","0.0-12.0-2.55","2d_cat_multi_stim_exp1","2022-5-4","12:58:35","25","75","3","9","10","40","30","120","89","20","[""Asian""]","No","Female","2000498","799","u","learn","","","learn_trial","22.0121","75.8068","in","1","1","","","","","","","","","","","","","","","","","","","","",""
"","","","","","canvas-keyboard-response","290","393933","0.0-12.0-3.55","2d_cat_multi_stim_exp1","2022-5-4","12:58:35","25","75","3","9","10","40","30","120","89","20","[""Asian""]","No","Female","2000498","null","null","learn_feedback","","","learn_feedback","22.0121","75.8068","in","","","","","","","","","","","","","","","","","","","","","","",""
"","","","","","canvas-keyboard-response","291","393994","0.0-12.0-4.55","2d_cat_multi_stim_exp1","2022-5-4","12:58:35","25","75","3","9","10","40","30","120","89","20","[""Asian""]","No","Female","2000498","null","null","","","","clear_screen","","","","","","","","","","","","","","","","","","","","","","","","","",""
"","","","","","canvas-keyboard-response","292","394503","0.0-12.0-0.56","2d_cat_multi_stim_exp1","2022-5-4","12:58:35","25","75","3","9","10","40","30","120","89","20","[""Asian""]","No","Female","2000498","null","null","","","","fixation","","","","","","","","","","","","","","","","","","","","","","","","","",""
"","","","","","canvas-keyboard-response","293","395013","0.0-12.0-1.56","2d_cat_multi_stim_exp1","2022-5-4","12:58:35","25","75","3","9","10","40","30","120","89","20","[""Asian""]","No","Female","2000498","null","null","","","","clear_screen","","","","","","","","","","","","","","","","","","","","","","","","","",""
"","","","","","canvas-keyboard-response","294","396143","0.0-12.0-2.56","2d_cat_multi_stim_exp1","2022-5-4","12:58:35","25","75","3","9","10","40","30","120","89","20","[""Asian""]","No","Female","2000498","1120","u","learn","","","learn_trial","25","75","in","1","1","","","","","","","","","","","","","","","","","","","","",""
"","","","","","canvas-keyboard-response","295","396657","0.0-12.0-3.56","2d_cat_multi_stim_exp1","2022-5-4","12:58:35","25","75","3","9","10","40","30","120","89","20","[""Asian""]","No","Female","2000498","null","null","learn_feedback","","","learn_feedback","25","75","in","","","","","","","","","","","","","","","","","","","","","","",""
"","","","","","canvas-keyboard-response","296","396715","0.0-12.0-4.56","2d_cat_multi_stim_exp1","2022-5-4","12:58:35","25","75","3","9","10","40","30","120","89","20","[""Asian""]","No","Female","2000498","null","null","","","","clear_screen","","","","","","","","","","","","","","","","","","","","","","","","","",""
"","","","","","canvas-keyboard-response","297","397225","0.0-12.0-0.57","2d_cat_multi_stim_exp1","2022-5-4","12:58:35","25","75","3","9","10","40","30","120","89","20","[""Asian""]","No","Female","2000498","null","null","","","","fixation","","","","","","","","","","","","","","","","","","","","","","","","","",""
