"success","timeout","failed_images","failed_audio","failed_video","trial_type","trial_index","time_elapsed","internal_node_id","exp_name","date","time","angle_mean_in","radius_mean_in","angle_sd_in","radius_sd_in","angle_min_out","angle_max_out","radius_min_out","radius_max_out","sub_n","age","race","ethnicity","gender","exp_duration","rt","response","exp_trial_type","stimulus","view_history","screen_id","angle","radius","distribution","choice","correct","order","angle_a","radius_a","angle_b","radius_b","angle_c","radius_c","jkl_correct","transfer_trial_type","choice_set","abc_correct","tc_correct","tc_angle","tdc_a","tdc_b","tdc_c","pair","category_a","category_b","category_c","question_order"
"true","false","[]","[]","[]","preload","0","103","0.0-0.0","2d_cat_multi_stim_exp1","2022-5-4","13:35:41","25","75","3","9","10","40","30","120","92","21","[""Other""]","Yes","Female","4755919","","","","","","","","","","","","","","","","","","","","","","","","","","","","","","","",""
"","","","","","survey-html-form","1","1437","0.0-1.0","2d_cat_multi_stim_exp1","2022-5-4","13:35:41","25","75","3","9","10","40","30","120","92","21","[""Other""]","Yes","Female","4755919","1313","{""response"":""92""}","enter-sub-number","","","","","","","","","","","","","","","","","","","","","","","","","","","","",""
"true","","","","","fullscreen","2","3031","0.0-2.0","2d_cat_multi_stim_exp1","2022-5-4","13:35:41","25","75","3","9","10","40","30","120","92","21","[""Other""]","Yes","Female","4755919","","","","","","","","","","","","","","","","","","","","","","","","","","","","","","","",""
"","","","","","image-button-response","3","1815157","0.0-3.0","2d_cat_multi_stim_exp1","2022-5-4","13:35:41","25","75","3","9","10","40","30","120","92","21","[""Other""]","Yes","Female","4755919","1812119","0","","consent.png","","","","","","","","","","","","","","","","","","","","","","","","","","","",""
"","","","","","html-button-response","4","1822267","0.0-4.0","2d_cat_multi_stim_exp1","2022-5-4","13:35:41","25","75","3","9","10","40","30","120","92","21","[""Other""]","Yes","Female","4755919","7106","0","","<div style= ""font-size:25px;"" <p> <strong> Welcome to the experiment! </strong><br> <p style=""color:#8B0000; font-size:25px;""><strong> Please do NOT exit full screen until you are done with the experiment. </strong> </p><p style=""font-size:25px;color:#8B0000;""> <strong> The experiment will be canceled and your data will be lost <br> if you try to go back or refresh the page at any point during the experiment.</strong> </p><br><p> <strong> Thanks in advance for your contribution to our research! </strong></p>","","","","","","","","","","","","","","","","","","","","","","","","","","","",""
"","","","","","instructions","5","1874226","0.0-5.0","2d_cat_multi_stim_exp1","2022-5-4","13:35:41","25","75","3","9","10","40","30","120","92","21","[""Other""]","Yes","Female","4755919","51956","","","","[{""page_index"":0,""viewing_time"":5291},{""page_index"":1,""viewing_time"":4457},{""page_index"":2,""viewing_time"":11224},{""page_index"":3,""viewing_time"":30984}]","instructions_1","","","","","","","","","","","","","","","","","","","","","","","","","",""
"","","","","","instructions","6","1877202","0.0-6.0","2d_cat_multi_stim_exp1","2022-5-4","13:35:41","25","75","3","9","10","40","30","120","92","21","[""Other""]","Yes","Female","4755919","2973","","","","[{""page_index"":0,""viewing_time"":2973}]","Click to see the kinds of turtles that will appear in the study.","","","","","","","","","","","","","","","","","","","","","","","","","",""
"","","","","","canvas-keyboard-response","7","1892226","0.0-7.0","2d_cat_multi_stim_exp1","2022-5-4","13:35:41","25","75","3","9","10","40","30","120","92","21","[""Other""]","Yes","Female","4755919","null","null","","","","demo_range","","","","","","","","","","","","","","","","","","","","","","","","","",""
"","","","","","instructions","8","1894554","0.0-8.0","2d_cat_multi_stim_exp1","2022-5-4","13:35:41","25","75","3","9","10","40","30","120","92","21","[""Other""]","Yes","Female","4755919","1827","","","","[{""page_index"":0,""viewing_time"":1826}]","Click to see some turtles in the subspecies.","","","","","","","","","","","","","","","","","","","","","","","","","",""
"","","","","","canvas-keyboard-response","9","1909575","0.0-9.0","2d_cat_multi_stim_exp1","2022-5-4","13:35:41","25","75","3","9","10","40","30","120","92","21","[""Other""]","Yes","Female","4755919","null","null","","","","demo_in","","","","","","","","","","","","","","","","","","","","","","","","","",""
"","","","","","instructions","10","1954906","0.0-10.0","2d_cat_multi_stim_exp1","2022-5-4","13:35:41","25","75","3","9","10","40","30","120","92","21","[""Other""]","Yes","Female","4755919","44830","","","","[{""page_index"":0,""viewing_time"":9677},{""page_index"":1,""viewing_time"":25848},{""page_index"":2,""viewing_time"":9304}]","instructions_2","","","","","","","","","","","","","","","","","","","","","","","","","",""
"","","","","","instructions","11","1956337","0.0-11.0","2d_cat_multi_stim_exp1","2022-5-4","13:35:41","25","75","3","9","10","40","30","120","92","21","[""Other""]","Yes","Female","4755919","1429","","","","[{""page_index"":0,""viewing_time"":1429}]","Click to begin the first phase of the experiment.","","","","","","","","","","","","","","","","","","","","","","","","","",""
"","","","","","canvas-keyboard-response","12","1956848","0.0-12.0-0.0","2d_cat_multi_stim_exp1","2022-5-4","13:35:41","25","75","3","9","10","40","30","120","92","21","[""Other""]","Yes","Female","4755919","null","null","","","","fixation","","","","","","","","","","","","","","","","","","","","","","","","","",""
"","","","","","canvas-keyboard-response","13","1957358","0.0-12.0-1.0","2d_cat_multi_stim_exp1","2022-5-4","13:35:41","25","75","3","9","10","40","30","120","92","21","[""Other""]","Yes","Female","4755919","null","null","","","","clear_screen","","","","","","","","","","","","","","","","","","","","","","","","","",""
"","","","","","canvas-keyboard-response","14","1960160","0.0-12.0-2.0","2d_cat_multi_stim_exp1","2022-5-4","13:35:41","25","75","3","9","10","40","30","120","92","21","[""Other""]","Yes","Female","4755919","2789","u","learn","","","learn_trial","23.8209","66.7243","in","1","1","","","","","","","","","","","","","","","","","","","","",""
"","","","","","canvas-keyboard-response","15","1960674","0.0-12.0-3.0","2d_cat_multi_stim_exp1","2022-5-4","13:35:41","25","75","3","9","10","40","30","120","92","21","[""Other""]","Yes","Female","4755919","null","null","learn_feedback","","","learn_feedback","23.8209","66.7243","in","","","","","","","","","","","","","","","","","","","","","","",""
"","","","","","canvas-keyboard-response","16","1960736","0.0-12.0-4.0","2d_cat_multi_stim_exp1","2022-5-4","13:35:41","25","75","3","9","10","40","30","120","92","21","[""Other""]","Yes","Female","4755919","null","null","","","","clear_screen","","","","","","","","","","","","","","","","","","","","","","","","","",""
"","","","","","canvas-keyboard-response","17","1961245","0.0-12.0-0.1","2d_cat_multi_stim_exp1","2022-5-4","13:35:41","25","75","3","9","10","40","30","120","92","21","[""Other""]","Yes","Female","4755919","null","null","","","","fixation","","","","","","","","","","","","","","","","","","","","","","","","","",""
"","","","","","canvas-keyboard-response","18","1961755","0.0-12.0-1.1","2d_cat_multi_stim_exp1","2022-5-4","13:35:41","25","75","3","9","10","40","30","120","92","21","[""Other""]","Yes","Female","4755919","null","null","","","","clear_screen","","","","","","","","","","","","","","","","","","","","","","","","","",""
"","","","","","canvas-keyboard-response","19","1962648","0.0-12.0-2.1","2d_cat_multi_stim_exp1","2022-5-4","13:35:41","25","75","3","9","10","40","30","120","92","21","[""Other""]","Yes","Female","4755919","883","u","learn","","","learn_trial","25","75","in","1","1","","","","","","","","","","","","","","","","","","","","",""
"","","","","","canvas-keyboard-response","20","1963158","0.0-12.0-3.1","2d_cat_multi_stim_exp1","2022-5-4","13:35:41","25","75","3","9","10","40","30","120","92","21","[""Other""]","Yes","Female","4755919","null","null","learn_feedback","","","learn_feedback","25","75","in","","","","","","","","","","","","","","","","","","","","","","",""
"","","","","","canvas-keyboard-response","21","1963217","0.0-12.0-4.1","2d_cat_multi_stim_exp1","2022-5-4","13:35:41","25","75","3","9","10","40","30","120","92","21","[""Other""]","Yes","Female","4755919","null","null","","","","clear_screen","","","","","","","","","","","","","","","","","","","","","","","","","",""
"","","","","","canvas-keyboard-response","22","1963726","0.0-12.0-0.2","2d_cat_multi_stim_exp1","2022-5-4","13:35:41","25","75","3","9","10","40","30","120","92","21","[""Other""]","Yes","Female","4755919","null","null","","","","fixation","","","","","","","","","","","","","","","","","","","","","","","","","",""
"","","","","","canvas-keyboard-response","23","1964237","0.0-12.0-1.2","2d_cat_multi_stim_exp1","2022-5-4","13:35:41","25","75","3","9","10","40","30","120","92","21","[""Other""]","Yes","Female","4755919","null","null","","","","clear_screen","","","","","","","","","","","","","","","","","","","","","","","","","",""
"","","","","","canvas-keyboard-response","24","1965711","0.0-12.0-2.2","2d_cat_multi_stim_exp1","2022-5-4","13:35:41","25","75","3","9","10","40","30","120","92","21","[""Other""]","Yes","Female","4755919","1466","i","learn","","","learn_trial","13.3333","30","out","0","1","","","","","","","","","","","","","","","","","","","","",""
"","","","","","canvas-keyboard-response","25","1966222","0.0-12.0-3.2","2d_cat_multi_stim_exp1","2022-5-4","13:35:41","25","75","3","9","10","40","30","120","92","21","[""Other""]","Yes","Female","4755919","null","null","learn_feedback","","","learn_feedback","13.3333","30","out","","","","","","","","","","","","","","","","","","","","","","",""
"","","","","","canvas-keyboard-response","26","1966281","0.0-12.0-4.2","2d_cat_multi_stim_exp1","2022-5-4","13:35:41","25","75","3","9","10","40","30","120","92","21","[""Other""]","Yes","Female","4755919","null","null","","","","clear_screen","","","","","","","","","","","","","","","","","","","","","","","","","",""
"","","","","","canvas-keyboard-response","27","1966790","0.0-12.0-0.3","2d_cat_multi_stim_exp1","2022-5-4","13:35:41","25","75","3","9","10","40","30","120","92","21","[""Other""]","Yes","Female","4755919","null","null","","","","fixation","","","","","","","","","","","","","","","","","","","","","","","","","",""
"","","","","","canvas-keyboard-response","28","1967300","0.0-12.0-1.3","2d_cat_multi_stim_exp1","2022-5-4","13:35:41","25","75","3","9","10","40","30","120","92","21","[""Other""]","Yes","Female","4755919","null","null","","","","clear_screen","","","","","","","","","","","","","","","","","","","","","","","","","",""
"","","","","","canvas-keyboard-response","29","1968600","0.0-12.0-2.3","2d_cat_multi_stim_exp1","2022-5-4","13:35:41","25","75","3","9","10","40","30","120","92","21","[""Other""]","Yes","Female","4755919","1290","u","learn","","","learn_trial","30","80","out","1","0","","","","","","","","","","","","","","","","","","","","",""
"","","","","","canvas-keyboard-response","30","1969613","0.0-12.0-3.3","2d_cat_multi_stim_exp1","2022-5-4","13:35:41","25","75","3","9","10","40","30","120","92","21","[""Other""]","Yes","Female","4755919","null","null","learn_feedback","","","learn_feedback","30","80","out","","","","","","","","","","","","","","","","","","","","","","",""
"","","","","","canvas-keyboard-response","31","1969674","0.0-12.0-4.3","2d_cat_multi_stim_exp1","2022-5-4","13:35:41","25","75","3","9","10","40","30","120","92","21","[""Other""]","Yes","Female","4755919","null","null","","","","clear_screen","","","","","","","","","","","","","","","","","","","","","","","","","",""
"","","","","","canvas-keyboard-response","32","1970185","0.0-12.0-0.4","2d_cat_multi_stim_exp1","2022-5-4","13:35:41","25","75","3","9","10","40","30","120","92","21","[""Other""]","Yes","Female","4755919","null","null","","","","fixation","","","","","","","","","","","","","","","","","","","","","","","","","",""
"","","","","","canvas-keyboard-response","33","1970694","0.0-12.0-1.4","2d_cat_multi_stim_exp1","2022-5-4","13:35:41","25","75","3","9","10","40","30","120","92","21","[""Other""]","Yes","Female","4755919","null","null","","","","clear_screen","","","","","","","","","","","","","","","","","","","","","","","","","",""
"","","","","","canvas-keyboard-response","34","1972095","0.0-12.0-2.4","2d_cat_multi_stim_exp1","2022-5-4","13:35:41","25","75","3","9","10","40","30","120","92","21","[""Other""]","Yes","Female","4755919","1390","i","learn","","","learn_trial","26.6667","100","out","0","1","","","","","","","","","","","","","","","","","","","","",""
"","","","","","canvas-keyboard-response","35","1972606","0.0-12.0-3.4","2d_cat_multi_stim_exp1","2022-5-4","13:35:41","25","75","3","9","10","40","30","120","92","21","[""Other""]","Yes","Female","4755919","null","null","learn_feedback","","","learn_feedback","26.6667","100","out","","","","","","","","","","","","","","","","","","","","","","",""
"","","","","","canvas-keyboard-response","36","1972665","0.0-12.0-4.4","2d_cat_multi_stim_exp1","2022-5-4","13:35:41","25","75","3","9","10","40","30","120","92","21","[""Other""]","Yes","Female","4755919","null","null","","","","clear_screen","","","","","","","","","","","","","","","","","","","","","","","","","",""
"","","","","","canvas-keyboard-response","37","1973175","0.0-12.0-0.5","2d_cat_multi_stim_exp1","2022-5-4","13:35:41","25","75","3","9","10","40","30","120","92","21","[""Other""]","Yes","Female","4755919","null","null","","","","fixation","","","","","","","","","","","","","","","","","","","","","","","","","",""
"","","","","","canvas-keyboard-response","38","1973685","0.0-12.0-1.5","2d_cat_multi_stim_exp1","2022-5-4","13:35:41","25","75","3","9","10","40","30","120","92","21","[""Other""]","Yes","Female","4755919","null","null","","","","clear_screen","","","","","","","","","","","","","","","","","","","","","","","","","",""
"","","","","","canvas-keyboard-response","39","1975457","0.0-12.0-2.5","2d_cat_multi_stim_exp1","2022-5-4","13:35:41","25","75","3","9","10","40","30","120","92","21","[""Other""]","Yes","Female","4755919","1760","u","learn","","","learn_trial","25","75","in","1","1","","","","","","","","","","","","","","","","","","","","",""
"","","","","","canvas-keyboard-response","40","1975966","0.0-12.0-3.5","2d_cat_multi_stim_exp1","2022-5-4","13:35:41","25","75","3","9","10","40","30","120","92","21","[""Other""]","Yes","Female","4755919","null","null","learn_feedback","","","learn_feedback","25","75","in","","","","","","","","","","","","","","","","","","","","","","",""
"","","","","","canvas-keyboard-response","41","1976026","0.0-12.0-4.5","2d_cat_multi_stim_exp1","2022-5-4","13:35:41","25","75","3","9","10","40","30","120","92","21","[""Other""]","Yes","Female","4755919","null","null","","","","clear_screen","","","","","","","","","","","","","","","","","","","","","","","","","",""
"","","","","","canvas-keyboard-response","42","1976535","0.0-12.0-0.6","2d_cat_multi_stim_exp1","2022-5-4","13:35:41","25","75","3","9","10","40","30","120","92","21","[""Other""]","Yes","Female","4755919","null","null","","","","fixation","","","","","","","","","","","","","","","","","","","","","","","","","",""
"","","","","","canvas-keyboard-response","43","1977045","0.0-12.0-1.6","2d_cat_multi_stim_exp1","2022-5-4","13:35:41","25","75","3","9","10","40","30","120","92","21","[""Other""]","Yes","Female","4755919","null","null","","","","clear_screen","","","","","","","","","","","","","","","","","","","","","","","","","",""
"","","","","","canvas-keyboard-response","44","1978095","0.0-12.0-2.6","2d_cat_multi_stim_exp1","2022-5-4","13:35:41","25","75","3","9","10","40","30","120","92","21","[""Other""]","Yes","Female","4755919","1039","i","learn","","","learn_trial","16.6667","30","out","0","1","","","","","","","","","","","","","","","","","","","","",""
"","","","","","canvas-keyboard-response","45","1978605","0.0-12.0-3.6","2d_cat_multi_stim_exp1","2022-5-4","13:35:41","25","75","3","9","10","40","30","120","92","21","[""Other""]","Yes","Female","4755919","null","null","learn_feedback","","","learn_feedback","16.6667","30","out","","","","","","","","","","","","","","","","","","","","","","",""
"","","","","","canvas-keyboard-response","46","1978665","0.0-12.0-4.6","2d_cat_multi_stim_exp1","2022-5-4","13:35:41","25","75","3","9","10","40","30","120","92","21","[""Other""]","Yes","Female","4755919","null","null","","","","clear_screen","","","","","","","","","","","","","","","","","","","","","","","","","",""
"","","","","","canvas-keyboard-response","47","1979174","0.0-12.0-0.7","2d_cat_multi_stim_exp1","2022-5-4","13:35:41","25","75","3","9","10","40","30","120","92","21","[""Other""]","Yes","Female","4755919","null","null","","","","fixation","","","","","","","","","","","","","","","","","","","","","","","","","",""
"","","","","","canvas-keyboard-response","48","1979683","0.0-12.0-1.7","2d_cat_multi_stim_exp1","2022-5-4","13:35:41","25","75","3","9","10","40","30","120","92","21","[""Other""]","Yes","Female","4755919","null","null","","","","clear_screen","","","","","","","","","","","","","","","","","","","","","","","","","",""
"","","","","","canvas-keyboard-response","49","1982807","0.0-12.0-2.7","2d_cat_multi_stim_exp1","2022-5-4","13:35:41","25","75","3","9","10","40","30","120","92","21","[""Other""]","Yes","Female","4755919","3114","u","learn","","","learn_trial","25","75","in","1","1","","","","","","","","","","","","","","","","","","","","",""
"","","","","","canvas-keyboard-response","50","1983317","0.0-12.0-3.7","2d_cat_multi_stim_exp1","2022-5-4","13:35:41","25","75","3","9","10","40","30","120","92","21","[""Other""]","Yes","Female","4755919","null","null","learn_feedback","","","learn_feedback","25","75","in","","","","","","","","","","","","","","","","","","","","","","",""
"","","","","","canvas-keyboard-response","51","1983377","0.0-12.0-4.7","2d_cat_multi_stim_exp1","2022-5-4","13:35:41","25","75","3","9","10","40","30","120","92","21","[""Other""]","Yes","Female","4755919","null","null","","","","clear_screen","","","","","","","","","","","","","","","","","","","","","","","","","",""
"","","","","","canvas-keyboard-response","52","1983885","0.0-12.0-0.8","2d_cat_multi_stim_exp1","2022-5-4","13:35:41","25","75","3","9","10","40","30","120","92","21","[""Other""]","Yes","Female","4755919","null","null","","","","fixation","","","","","","","","","","","","","","","","","","","","","","","","","",""
"","","","","","canvas-keyboard-response","53","1984395","0.0-12.0-1.8","2d_cat_multi_stim_exp1","2022-5-4","13:35:41","25","75","3","9","10","40","30","120","92","21","[""Other""]","Yes","Female","4755919","null","null","","","","clear_screen","","","","","","","","","","","","","","","","","","","","","","","","","",""
"","","","","","canvas-keyboard-response","54","1985664","0.0-12.0-2.8","2d_cat_multi_stim_exp1","2022-5-4","13:35:41","25","75","3","9","10","40","30","120","92","21","[""Other""]","Yes","Female","4755919","1260","i","learn","","","learn_trial","36.6667","70","out","0","1","","","","","","","","","","","","","","","","","","","","",""
"","","","","","canvas-keyboard-response","55","1986173","0.0-12.0-3.8","2d_cat_multi_stim_exp1","2022-5-4","13:35:41","25","75","3","9","10","40","30","120","92","21","[""Other""]","Yes","Female","4755919","null","null","learn_feedback","","","learn_feedback","36.6667","70","out","","","","","","","","","","","","","","","","","","","","","","",""
"","","","","","canvas-keyboard-response","56","1986232","0.0-12.0-4.8","2d_cat_multi_stim_exp1","2022-5-4","13:35:41","25","75","3","9","10","40","30","120","92","21","[""Other""]","Yes","Female","4755919","null","null","","","","clear_screen","","","","","","","","","","","","","","","","","","","","","","","","","",""
"","","","","","canvas-keyboard-response","57","1986741","0.0-12.0-0.9","2d_cat_multi_stim_exp1","2022-5-4","13:35:41","25","75","3","9","10","40","30","120","92","21","[""Other""]","Yes","Female","4755919","null","null","","","","fixation","","","","","","","","","","","","","","","","","","","","","","","","","",""
"","","","","","canvas-keyboard-response","58","1987251","0.0-12.0-1.9","2d_cat_multi_stim_exp1","2022-5-4","13:35:41","25","75","3","9","10","40","30","120","92","21","[""Other""]","Yes","Female","4755919","null","null","","","","clear_screen","","","","","","","","","","","","","","","","","","","","","","","","","",""
"","","","","","canvas-keyboard-response","59","1988207","0.0-12.0-2.9","2d_cat_multi_stim_exp1","2022-5-4","13:35:41","25","75","3","9","10","40","30","120","92","21","[""Other""]","Yes","Female","4755919","945","u","learn","","","learn_trial","27.9518","76.607","in","1","1","","","","","","","","","","","","","","","","","","","","",""
"","","","","","canvas-keyboard-response","60","1988717","0.0-12.0-3.9","2d_cat_multi_stim_exp1","2022-5-4","13:35:41","25","75","3","9","10","40","30","120","92","21","[""Other""]","Yes","Female","4755919","null","null","learn_feedback","","","learn_feedback","27.9518","76.607","in","","","","","","","","","","","","","","","","","","","","","","",""
"","","","","","canvas-keyboard-response","61","1988777","0.0-12.0-4.9","2d_cat_multi_stim_exp1","2022-5-4","13:35:41","25","75","3","9","10","40","30","120","92","21","[""Other""]","Yes","Female","4755919","null","null","","","","clear_screen","","","","","","","","","","","","","","","","","","","","","","","","","",""
"","","","","","canvas-keyboard-response","62","1989285","0.0-12.0-0.10","2d_cat_multi_stim_exp1","2022-5-4","13:35:41","25","75","3","9","10","40","30","120","92","21","[""Other""]","Yes","Female","4755919","null","null","","","","fixation","","","","","","","","","","","","","","","","","","","","","","","","","",""
"","","","","","canvas-keyboard-response","63","1989795","0.0-12.0-1.10","2d_cat_multi_stim_exp1","2022-5-4","13:35:41","25","75","3","9","10","40","30","120","92","21","[""Other""]","Yes","Female","4755919","null","null","","","","clear_screen","","","","","","","","","","","","","","","","","","","","","","","","","",""
"","","","","","canvas-keyboard-response","64","1990952","0.0-12.0-2.10","2d_cat_multi_stim_exp1","2022-5-4","13:35:41","25","75","3","9","10","40","30","120","92","21","[""Other""]","Yes","Female","4755919","1146","i","learn","","","learn_trial","30","100","out","0","1","","","","","","","","","","","","","","","","","","","","",""
"","","","","","canvas-keyboard-response","65","1991462","0.0-12.0-3.10","2d_cat_multi_stim_exp1","2022-5-4","13:35:41","25","75","3","9","10","40","30","120","92","21","[""Other""]","Yes","Female","4755919","null","null","learn_feedback","","","learn_feedback","30","100","out","","","","","","","","","","","","","","","","","","","","","","",""
"","","","","","canvas-keyboard-response","66","1991520","0.0-12.0-4.10","2d_cat_multi_stim_exp1","2022-5-4","13:35:41","25","75","3","9","10","40","30","120","92","21","[""Other""]","Yes","Female","4755919","null","null","","","","clear_screen","","","","","","","","","","","","","","","","","","","","","","","","","",""
"","","","","","canvas-keyboard-response","67","1992030","0.0-12.0-0.11","2d_cat_multi_stim_exp1","2022-5-4","13:35:41","25","75","3","9","10","40","30","120","92","21","[""Other""]","Yes","Female","4755919","null","null","","","","fixation","","","","","","","","","","","","","","","","","","","","","","","","","",""
"","","","","","canvas-keyboard-response","68","1992539","0.0-12.0-1.11","2d_cat_multi_stim_exp1","2022-5-4","13:35:41","25","75","3","9","10","40","30","120","92","21","[""Other""]","Yes","Female","4755919","null","null","","","","clear_screen","","","","","","","","","","","","","","","","","","","","","","","","","",""
"","","","","","canvas-keyboard-response","69","1993495","0.0-12.0-2.11","2d_cat_multi_stim_exp1","2022-5-4","13:35:41","25","75","3","9","10","40","30","120","92","21","[""Other""]","Yes","Female","4755919","946","i","learn","","","learn_trial","20","60","out","0","1","","","","","","","","","","","","","","","","","","","","",""
"","","","","","canvas-keyboard-response","70","1994005","0.0-12.0-3.11","2d_cat_multi_stim_exp1","2022-5-4","13:35:41","25","75","3","9","10","40","30","120","92","21","[""Other""]","Yes","Female","4755919","null","null","learn_feedback","","","learn_feedback","20","60","out","","","","","","","","","","","","","","","","","","","","","","",""
"","","","","","canvas-keyboard-response","71","1994063","0.0-12.0-4.11","2d_cat_multi_stim_exp1","2022-5-4","13:35:41","25","75","3","9","10","40","30","120","92","21","[""Other""]","Yes","Female","4755919","null","null","","","","clear_screen","","","","","","","","","","","","","","","","","","","","","","","","","",""
"","","","","","canvas-keyboard-response","72","1994572","0.0-12.0-0.12","2d_cat_multi_stim_exp1","2022-5-4","13:35:41","25","75","3","9","10","40","30","120","92","21","[""Other""]","Yes","Female","4755919","null","null","","","","fixation","","","","","","","","","","","","","","","","","","","","","","","","","",""
"","","","","","canvas-keyboard-response","73","1995082","0.0-12.0-1.12","2d_cat_multi_stim_exp1","2022-5-4","13:35:41","25","75","3","9","10","40","30","120","92","21","[""Other""]","Yes","Female","4755919","null","null","","","","clear_screen","","","","","","","","","","","","","","","","","","","","","","","","","",""
"","","","","","canvas-keyboard-response","74","1996150","0.0-12.0-2.12","2d_cat_multi_stim_exp1","2022-5-4","13:35:41","25","75","3","9","10","40","30","120","92","21","[""Other""]","Yes","Female","4755919","1058","i","learn","","","learn_trial","26.6667","40","out","0","1","","","","","","","","","","","","","","","","","","","","",""
"","","","","","canvas-keyboard-response","75","1996661","0.0-12.0-3.12","2d_cat_multi_stim_exp1","2022-5-4","13:35:41","25","75","3","9","10","40","30","120","92","21","[""Other""]","Yes","Female","4755919","null","null","learn_feedback","","","learn_feedback","26.6667","40","out","","","","","","","","","","","","","","","","","","","","","","",""
"","","","","","canvas-keyboard-response","76","1996719","0.0-12.0-4.12","2d_cat_multi_stim_exp1","2022-5-4","13:35:41","25","75","3","9","10","40","30","120","92","21","[""Other""]","Yes","Female","4755919","null","null","","","","clear_screen","","","","","","","","","","","","","","","","","","","","","","","","","",""
"","","","","","canvas-keyboard-response","77","1997229","0.0-12.0-0.13","2d_cat_multi_stim_exp1","2022-5-4","13:35:41","25","75","3","9","10","40","30","120","92","21","[""Other""]","Yes","Female","4755919","null","null","","","","fixation","","","","","","","","","","","","","","","","","","","","","","","","","",""
"","","","","","canvas-keyboard-response","78","1997738","0.0-12.0-1.13","2d_cat_multi_stim_exp1","2022-5-4","13:35:41","25","75","3","9","10","40","30","120","92","21","[""Other""]","Yes","Female","4755919","null","null","","","","clear_screen","","","","","","","","","","","","","","","","","","","","","","","","","",""
"","","","","","canvas-keyboard-response","79","1998895","0.0-12.0-2.13","2d_cat_multi_stim_exp1","2022-5-4","13:35:41","25","75","3","9","10","40","30","120","92","21","[""Other""]","Yes","Female","4755919","1148","i","learn","","","learn_trial","40","100","out","0","1","","","","","","","","","","","","","","","","","","","","",""
"","","","","","canvas-keyboard-response","80","1999405","0.0-12.0-3.13","2d_cat_multi_stim_exp1","2022-5-4","13:35:41","25","75","3","9","10","40","30","120","92","21","[""Other""]","Yes","Female","4755919","null","null","learn_feedback","","","learn_feedback","40","100","out","","","","","","","","","","","","","","","","","","","","","","",""
"","","","","","canvas-keyboard-response","81","1999463","0.0-12.0-4.13","2d_cat_multi_stim_exp1","2022-5-4","13:35:41","25","75","3","9","10","40","30","120","92","21","[""Other""]","Yes","Female","4755919","null","null","","","","clear_screen","","","","","","","","","","","","","","","","","","","","","","","","","",""
"","","","","","canvas-keyboard-response","82","1999973","0.0-12.0-0.14","2d_cat_multi_stim_exp1","2022-5-4","13:35:41","25","75","3","9","10","40","30","120","92","21","[""Other""]","Yes","Female","4755919","null","null","","","","fixation","","","","","","","","","","","","","","","","","","","","","","","","","",""
"","","","","","canvas-keyboard-response","83","2000482","0.0-12.0-1.14","2d_cat_multi_stim_exp1","2022-5-4","13:35:41","25","75","3","9","10","40","30","120","92","21","[""Other""]","Yes","Female","4755919","null","null","","","","clear_screen","","","","","","","","","","","","","","","","","","","","","","","","","",""
"","","","","","canvas-keyboard-response","84","2001439","0.0-12.0-2.14","2d_cat_multi_stim_exp1","2022-5-4","13:35:41","25","75","3","9","10","40","30","120","92","21","[""Other""]","Yes","Female","4755919","947","u","learn","","","learn_trial","25","75","in","1","1","","","","","","","","","","","","","","","","","","","","",""
"","","","","","canvas-keyboard-response","85","2001949","0.0-12.0-3.14","2d_cat_multi_stim_exp1","2022-5-4","13:35:41","25","75","3","9","10","40","30","120","92","21","[""Other""]","Yes","Female","4755919","null","null","learn_feedback","","","learn_feedback","25","75","in","","","","","","","","","","","","","","","","","","","","","","",""
"","","","","","canvas-keyboard-response","86","2002007","0.0-12.0-4.14","2d_cat_multi_stim_exp1","2022-5-4","13:35:41","25","75","3","9","10","40","30","120","92","21","[""Other""]","Yes","Female","4755919","null","null","","","","clear_screen","","","","","","","","","","","","","","","","","","","","","","","","","",""
"","","","","","canvas-keyboard-response","87","2002516","0.0-12.0-0.15","2d_cat_multi_stim_exp1","2022-5-4","13:35:41","25","75","3","9","10","40","30","120","92","21","[""Other""]","Yes","Female","4755919","null","null","","","","fixation","","","","","","","","","","","","","","","","","","","","","","","","","",""
"","","","","","canvas-keyboard-response","88","2003026","0.0-12.0-1.15","2d_cat_multi_stim_exp1","2022-5-4","13:35:41","25","75","3","9","10","40","30","120","92","21","[""Other""]","Yes","Female","4755919","null","null","","","","clear_screen","","","","","","","","","","","","","","","","","","","","","","","","","",""
"","","","","","canvas-keyboard-response","89","2004623","0.0-12.0-2.15","2d_cat_multi_stim_exp1","2022-5-4","13:35:41","25","75","3","9","10","40","30","120","92","21","[""Other""]","Yes","Female","4755919","1583","u","learn","","","learn_trial","25","75","in","1","1","","","","","","","","","","","","","","","","","","","","",""
"","","","","","canvas-keyboard-response","90","2005133","0.0-12.0-3.15","2d_cat_multi_stim_exp1","2022-5-4","13:35:41","25","75","3","9","10","40","30","120","92","21","[""Other""]","Yes","Female","4755919","null","null","learn_feedback","","","learn_feedback","25","75","in","","","","","","","","","","","","","","","","","","","","","","",""
"","","","","","canvas-keyboard-response","91","2005192","0.0-12.0-4.15","2d_cat_multi_stim_exp1","2022-5-4","13:35:41","25","75","3","9","10","40","30","120","92","21","[""Other""]","Yes","Female","4755919","null","null","","","","clear_screen","","","","","","","","","","","","","","","","","","","","","","","","","",""
"","","","","","canvas-keyboard-response","92","2005702","0.0-12.0-0.16","2d_cat_multi_stim_exp1","2022-5-4","13:35:41","25","75","3","9","10","40","30","120","92","21","[""Other""]","Yes","Female","4755919","null","null","","","","fixation","","","","","","","","","","","","","","","","","","","","","","","","","",""
"","","","","","canvas-keyboard-response","93","2006212","0.0-12.0-1.16","2d_cat_multi_stim_exp1","2022-5-4","13:35:41","25","75","3","9","10","40","30","120","92","21","[""Other""]","Yes","Female","4755919","null","null","","","","clear_screen","","","","","","","","","","","","","","","","","","","","","","","","","",""
"","","","","","canvas-keyboard-response","94","2007519","0.0-12.0-2.16","2d_cat_multi_stim_exp1","2022-5-4","13:35:41","25","75","3","9","10","40","30","120","92","21","[""Other""]","Yes","Female","4755919","1297","u","learn","","","learn_trial","25","75","in","1","1","","","","","","","","","","","","","","","","","","","","",""
"","","","","","canvas-keyboard-response","95","2008029","0.0-12.0-3.16","2d_cat_multi_stim_exp1","2022-5-4","13:35:41","25","75","3","9","10","40","30","120","92","21","[""Other""]","Yes","Female","4755919","null","null","learn_feedback","","","learn_feedback","25","75","in","","","","","","","","","","","","","","","","","","","","","","",""
"","","","","","canvas-keyboard-response","96","2008088","0.0-12.0-4.16","2d_cat_multi_stim_exp1","2022-5-4","13:35:41","25","75","3","9","10","40","30","120","92","21","[""Other""]","Yes","Female","4755919","null","null","","","","clear_screen","","","","","","","","","","","","","","","","","","","","","","","","","",""
"","","","","","canvas-keyboard-response","97","2008596","0.0-12.0-0.17","2d_cat_multi_stim_exp1","2022-5-4","13:35:41","25","75","3","9","10","40","30","120","92","21","[""Other""]","Yes","Female","4755919","null","null","","","","fixation","","","","","","","","","","","","","","","","","","","","","","","","","",""
"","","","","","canvas-keyboard-response","98","2009106","0.0-12.0-1.17","2d_cat_multi_stim_exp1","2022-5-4","13:35:41","25","75","3","9","10","40","30","120","92","21","[""Other""]","Yes","Female","4755919","null","null","","","","clear_screen","","","","","","","","","","","","","","","","","","","","","","","","","",""
"","","","","","canvas-keyboard-response","99","2009927","0.0-12.0-2.17","2d_cat_multi_stim_exp1","2022-5-4","13:35:41","25","75","3","9","10","40","30","120","92","21","[""Other""]","Yes","Female","4755919","812","i","learn","","","learn_trial","30","90","out","0","1","","","","","","","","","","","","","","","","","","","","",""
"","","","","","canvas-keyboard-response","100","2010436","0.0-12.0-3.17","2d_cat_multi_stim_exp1","2022-5-4","13:35:41","25","75","3","9","10","40","30","120","92","21","[""Other""]","Yes","Female","4755919","null","null","learn_feedback","","","learn_feedback","30","90","out","","","","","","","","","","","","","","","","","","","","","","",""
"","","","","","canvas-keyboard-response","101","2010496","0.0-12.0-4.17","2d_cat_multi_stim_exp1","2022-5-4","13:35:41","25","75","3","9","10","40","30","120","92","21","[""Other""]","Yes","Female","4755919","null","null","","","","clear_screen","","","","","","","","","","","","","","","","","","","","","","","","","",""
"","","","","","canvas-keyboard-response","102","2011004","0.0-12.0-0.18","2d_cat_multi_stim_exp1","2022-5-4","13:35:41","25","75","3","9","10","40","30","120","92","21","[""Other""]","Yes","Female","4755919","null","null","","","","fixation","","","","","","","","","","","","","","","","","","","","","","","","","",""
"","","","","","canvas-keyboard-response","103","2011514","0.0-12.0-1.18","2d_cat_multi_stim_exp1","2022-5-4","13:35:41","25","75","3","9","10","40","30","120","92","21","[""Other""]","Yes","Female","4755919","null","null","","","","clear_screen","","","","","","","","","","","","","","","","","","","","","","","","","",""
"","","","","","canvas-keyboard-response","104","2012719","0.0-12.0-2.18","2d_cat_multi_stim_exp1","2022-5-4","13:35:41","25","75","3","9","10","40","30","120","92","21","[""Other""]","Yes","Female","4755919","1193","i","learn","","","learn_trial","27.8087","71.8376","in","0","0","","","","","","","","","","","","","","","","","","","","",""
"","","","","","canvas-keyboard-response","105","2013729","0.0-12.0-3.18","2d_cat_multi_stim_exp1","2022-5-4","13:35:41","25","75","3","9","10","40","30","120","92","21","[""Other""]","Yes","Female","4755919","null","null","learn_feedback","","","learn_feedback","27.8087","71.8376","in","","","","","","","","","","","","","","","","","","","","","","",""
"","","","","","canvas-keyboard-response","106","2013788","0.0-12.0-4.18","2d_cat_multi_stim_exp1","2022-5-4","13:35:41","25","75","3","9","10","40","30","120","92","21","[""Other""]","Yes","Female","4755919","null","null","","","","clear_screen","","","","","","","","","","","","","","","","","","","","","","","","","",""
"","","","","","canvas-keyboard-response","107","2014297","0.0-12.0-0.19","2d_cat_multi_stim_exp1","2022-5-4","13:35:41","25","75","3","9","10","40","30","120","92","21","[""Other""]","Yes","Female","4755919","null","null","","","","fixation","","","","","","","","","","","","","","","","","","","","","","","","","",""
"","","","","","canvas-keyboard-response","108","2014806","0.0-12.0-1.19","2d_cat_multi_stim_exp1","2022-5-4","13:35:41","25","75","3","9","10","40","30","120","92","21","[""Other""]","Yes","Female","4755919","null","null","","","","clear_screen","","","","","","","","","","","","","","","","","","","","","","","","","",""
"","","","","","canvas-keyboard-response","109","2015543","0.0-12.0-2.19","2d_cat_multi_stim_exp1","2022-5-4","13:35:41","25","75","3","9","10","40","30","120","92","21","[""Other""]","Yes","Female","4755919","726","i","learn","","","learn_trial","40","90","out","0","1","","","","","","","","","","","","","","","","","","","","",""
"","","","","","canvas-keyboard-response","110","2016053","0.0-12.0-3.19","2d_cat_multi_stim_exp1","2022-5-4","13:35:41","25","75","3","9","10","40","30","120","92","21","[""Other""]","Yes","Female","4755919","null","null","learn_feedback","","","learn_feedback","40","90","out","","","","","","","","","","","","","","","","","","","","","","",""
"","","","","","canvas-keyboard-response","111","2016112","0.0-12.0-4.19","2d_cat_multi_stim_exp1","2022-5-4","13:35:41","25","75","3","9","10","40","30","120","92","21","[""Other""]","Yes","Female","4755919","null","null","","","","clear_screen","","","","","","","","","","","","","","","","","","","","","","","","","",""
"","","","","","canvas-keyboard-response","112","2016622","0.0-12.0-0.20","2d_cat_multi_stim_exp1","2022-5-4","13:35:41","25","75","3","9","10","40","30","120","92","21","[""Other""]","Yes","Female","4755919","null","null","","","","fixation","","","","","","","","","","","","","","","","","","","","","","","","","",""
"","","","","","canvas-keyboard-response","113","2017132","0.0-12.0-1.20","2d_cat_multi_stim_exp1","2022-5-4","13:35:41","25","75","3","9","10","40","30","120","92","21","[""Other""]","Yes","Female","4755919","null","null","","","","clear_screen","","","","","","","","","","","","","","","","","","","","","","","","","",""
"","","","","","canvas-keyboard-response","114","2018087","0.0-12.0-2.20","2d_cat_multi_stim_exp1","2022-5-4","13:35:41","25","75","3","9","10","40","30","120","92","21","[""Other""]","Yes","Female","4755919","946","i","learn","","","learn_trial","26.4216","67.0746","in","0","0","","","","","","","","","","","","","","","","","","","","",""
"","","","","","canvas-keyboard-response","115","2019097","0.0-12.0-3.20","2d_cat_multi_stim_exp1","2022-5-4","13:35:41","25","75","3","9","10","40","30","120","92","21","[""Other""]","Yes","Female","4755919","null","null","learn_feedback","","","learn_feedback","26.4216","67.0746","in","","","","","","","","","","","","","","","","","","","","","","",""
"","","","","","canvas-keyboard-response","116","2019155","0.0-12.0-4.20","2d_cat_multi_stim_exp1","2022-5-4","13:35:41","25","75","3","9","10","40","30","120","92","21","[""Other""]","Yes","Female","4755919","null","null","","","","clear_screen","","","","","","","","","","","","","","","","","","","","","","","","","",""
"","","","","","canvas-keyboard-response","117","2019664","0.0-12.0-0.21","2d_cat_multi_stim_exp1","2022-5-4","13:35:41","25","75","3","9","10","40","30","120","92","21","[""Other""]","Yes","Female","4755919","null","null","","","","fixation","","","","","","","","","","","","","","","","","","","","","","","","","",""
"","","","","","canvas-keyboard-response","118","2020175","0.0-12.0-1.21","2d_cat_multi_stim_exp1","2022-5-4","13:35:41","25","75","3","9","10","40","30","120","92","21","[""Other""]","Yes","Female","4755919","null","null","","","","clear_screen","","","","","","","","","","","","","","","","","","","","","","","","","",""
"","","","","","canvas-keyboard-response","119","2020951","0.0-12.0-2.21","2d_cat_multi_stim_exp1","2022-5-4","13:35:41","25","75","3","9","10","40","30","120","92","21","[""Other""]","Yes","Female","4755919","764","i","learn","","","learn_trial","23.3333","110","out","0","1","","","","","","","","","","","","","","","","","","","","",""
"","","","","","canvas-keyboard-response","120","2021463","0.0-12.0-3.21","2d_cat_multi_stim_exp1","2022-5-4","13:35:41","25","75","3","9","10","40","30","120","92","21","[""Other""]","Yes","Female","4755919","null","null","learn_feedback","","","learn_feedback","23.3333","110","out","","","","","","","","","","","","","","","","","","","","","","",""
"","","","","","canvas-keyboard-response","121","2021524","0.0-12.0-4.21","2d_cat_multi_stim_exp1","2022-5-4","13:35:41","25","75","3","9","10","40","30","120","92","21","[""Other""]","Yes","Female","4755919","null","null","","","","clear_screen","","","","","","","","","","","","","","","","","","","","","","","","","",""
"","","","","","canvas-keyboard-response","122","2022034","0.0-12.0-0.22","2d_cat_multi_stim_exp1","2022-5-4","13:35:41","25","75","3","9","10","40","30","120","92","21","[""Other""]","Yes","Female","4755919","null","null","","","","fixation","","","","","","","","","","","","","","","","","","","","","","","","","",""
"","","","","","canvas-keyboard-response","123","2022544","0.0-12.0-1.22","2d_cat_multi_stim_exp1","2022-5-4","13:35:41","25","75","3","9","10","40","30","120","92","21","[""Other""]","Yes","Female","4755919","null","null","","","","clear_screen","","","","","","","","","","","","","","","","","","","","","","","","","",""
"","","","","","canvas-keyboard-response","124","2023175","0.0-12.0-2.22","2d_cat_multi_stim_exp1","2022-5-4","13:35:41","25","75","3","9","10","40","30","120","92","21","[""Other""]","Yes","Female","4755919","621","i","learn","","","learn_trial","40","70","out","0","1","","","","","","","","","","","","","","","","","","","","",""
"","","","","","canvas-keyboard-response","125","2023685","0.0-12.0-3.22","2d_cat_multi_stim_exp1","2022-5-4","13:35:41","25","75","3","9","10","40","30","120","92","21","[""Other""]","Yes","Female","4755919","null","null","learn_feedback","","","learn_feedback","40","70","out","","","","","","","","","","","","","","","","","","","","","","",""
"","","","","","canvas-keyboard-response","126","2023744","0.0-12.0-4.22","2d_cat_multi_stim_exp1","2022-5-4","13:35:41","25","75","3","9","10","40","30","120","92","21","[""Other""]","Yes","Female","4755919","null","null","","","","clear_screen","","","","","","","","","","","","","","","","","","","","","","","","","",""
"","","","","","canvas-keyboard-response","127","2024255","0.0-12.0-0.23","2d_cat_multi_stim_exp1","2022-5-4","13:35:41","25","75","3","9","10","40","30","120","92","21","[""Other""]","Yes","Female","4755919","null","null","","","","fixation","","","","","","","","","","","","","","","","","","","","","","","","","",""
"","","","","","canvas-keyboard-response","128","2024765","0.0-12.0-1.23","2d_cat_multi_stim_exp1","2022-5-4","13:35:41","25","75","3","9","10","40","30","120","92","21","[""Other""]","Yes","Female","4755919","null","null","","","","clear_screen","","","","","","","","","","","","","","","","","","","","","","","","","",""
"","","","","","canvas-keyboard-response","129","2025767","0.0-12.0-2.23","2d_cat_multi_stim_exp1","2022-5-4","13:35:41","25","75","3","9","10","40","30","120","92","21","[""Other""]","Yes","Female","4755919","992","i","learn","","","learn_trial","13.3333","100","out","0","1","","","","","","","","","","","","","","","","","","","","",""
"","","","","","canvas-keyboard-response","130","2026278","0.0-12.0-3.23","2d_cat_multi_stim_exp1","2022-5-4","13:35:41","25","75","3","9","10","40","30","120","92","21","[""Other""]","Yes","Female","4755919","null","null","learn_feedback","","","learn_feedback","13.3333","100","out","","","","","","","","","","","","","","","","","","","","","","",""
"","","","","","canvas-keyboard-response","131","2026338","0.0-12.0-4.23","2d_cat_multi_stim_exp1","2022-5-4","13:35:41","25","75","3","9","10","40","30","120","92","21","[""Other""]","Yes","Female","4755919","null","null","","","","clear_screen","","","","","","","","","","","","","","","","","","","","","","","","","",""
"","","","","","canvas-keyboard-response","132","2026847","0.0-12.0-0.24","2d_cat_multi_stim_exp1","2022-5-4","13:35:41","25","75","3","9","10","40","30","120","92","21","[""Other""]","Yes","Female","4755919","null","null","","","","fixation","","","","","","","","","","","","","","","","","","","","","","","","","",""
"","","","","","canvas-keyboard-response","133","2027357","0.0-12.0-1.24","2d_cat_multi_stim_exp1","2022-5-4","13:35:41","25","75","3","9","10","40","30","120","92","21","[""Other""]","Yes","Female","4755919","null","null","","","","clear_screen","","","","","","","","","","","","","","","","","","","","","","","","","",""
"","","","","","canvas-keyboard-response","134","2028391","0.0-12.0-2.24","2d_cat_multi_stim_exp1","2022-5-4","13:35:41","25","75","3","9","10","40","30","120","92","21","[""Other""]","Yes","Female","4755919","1025","i","learn","","","learn_trial","13.3333","40","out","0","1","","","","","","","","","","","","","","","","","","","","",""
"","","","","","canvas-keyboard-response","135","2028901","0.0-12.0-3.24","2d_cat_multi_stim_exp1","2022-5-4","13:35:41","25","75","3","9","10","40","30","120","92","21","[""Other""]","Yes","Female","4755919","null","null","learn_feedback","","","learn_feedback","13.3333","40","out","","","","","","","","","","","","","","","","","","","","","","",""
"","","","","","canvas-keyboard-response","136","2028961","0.0-12.0-4.24","2d_cat_multi_stim_exp1","2022-5-4","13:35:41","25","75","3","9","10","40","30","120","92","21","[""Other""]","Yes","Female","4755919","null","null","","","","clear_screen","","","","","","","","","","","","","","","","","","","","","","","","","",""
"","","","","","canvas-keyboard-response","137","2029470","0.0-12.0-0.25","2d_cat_multi_stim_exp1","2022-5-4","13:35:41","25","75","3","9","10","40","30","120","92","21","[""Other""]","Yes","Female","4755919","null","null","","","","fixation","","","","","","","","","","","","","","","","","","","","","","","","","",""
"","","","","","canvas-keyboard-response","138","2029979","0.0-12.0-1.25","2d_cat_multi_stim_exp1","2022-5-4","13:35:41","25","75","3","9","10","40","30","120","92","21","[""Other""]","Yes","Female","4755919","null","null","","","","clear_screen","","","","","","","","","","","","","","","","","","","","","","","","","",""
"","","","","","canvas-keyboard-response","139","2030784","0.0-12.0-2.25","2d_cat_multi_stim_exp1","2022-5-4","13:35:41","25","75","3","9","10","40","30","120","92","21","[""Other""]","Yes","Female","4755919","794","u","learn","","","learn_trial","25","75","in","1","1","","","","","","","","","","","","","","","","","","","","",""
"","","","","","canvas-keyboard-response","140","2031292","0.0-12.0-3.25","2d_cat_multi_stim_exp1","2022-5-4","13:35:41","25","75","3","9","10","40","30","120","92","21","[""Other""]","Yes","Female","4755919","null","null","learn_feedback","","","learn_feedback","25","75","in","","","","","","","","","","","","","","","","","","","","","","",""
"","","","","","canvas-keyboard-response","141","2031357","0.0-12.0-4.25","2d_cat_multi_stim_exp1","2022-5-4","13:35:41","25","75","3","9","10","40","30","120","92","21","[""Other""]","Yes","Female","4755919","null","null","","","","clear_screen","","","","","","","","","","","","","","","","","","","","","","","","","",""
"","","","","","canvas-keyboard-response","142","2031866","0.0-12.0-0.26","2d_cat_multi_stim_exp1","2022-5-4","13:35:41","25","75","3","9","10","40","30","120","92","21","[""Other""]","Yes","Female","4755919","null","null","","","","fixation","","","","","","","","","","","","","","","","","","","","","","","","","",""
"","","","","","canvas-keyboard-response","143","2032375","0.0-12.0-1.26","2d_cat_multi_stim_exp1","2022-5-4","13:35:41","25","75","3","9","10","40","30","120","92","21","[""Other""]","Yes","Female","4755919","null","null","","","","clear_screen","","","","","","","","","","","","","","","","","","","","","","","","","",""
"","","","","","canvas-keyboard-response","144","2033583","0.0-12.0-2.26","2d_cat_multi_stim_exp1","2022-5-4","13:35:41","25","75","3","9","10","40","30","120","92","21","[""Other""]","Yes","Female","4755919","1198","i","learn","","","learn_trial","22.5729","69.7099","in","0","0","","","","","","","","","","","","","","","","","","","","",""
"","","","","","canvas-keyboard-response","145","2034593","0.0-12.0-3.26","2d_cat_multi_stim_exp1","2022-5-4","13:35:41","25","75","3","9","10","40","30","120","92","21","[""Other""]","Yes","Female","4755919","null","null","learn_feedback","","","learn_feedback","22.5729","69.7099","in","","","","","","","","","","","","","","","","","","","","","","",""
"","","","","","canvas-keyboard-response","146","2034652","0.0-12.0-4.26","2d_cat_multi_stim_exp1","2022-5-4","13:35:41","25","75","3","9","10","40","30","120","92","21","[""Other""]","Yes","Female","4755919","null","null","","","","clear_screen","","","","","","","","","","","","","","","","","","","","","","","","","",""
"","","","","","canvas-keyboard-response","147","2035161","0.0-12.0-0.27","2d_cat_multi_stim_exp1","2022-5-4","13:35:41","25","75","3","9","10","40","30","120","92","21","[""Other""]","Yes","Female","4755919","null","null","","","","fixation","","","","","","","","","","","","","","","","","","","","","","","","","",""
"","","","","","canvas-keyboard-response","148","2035672","0.0-12.0-1.27","2d_cat_multi_stim_exp1","2022-5-4","13:35:41","25","75","3","9","10","40","30","120","92","21","[""Other""]","Yes","Female","4755919","null","null","","","","clear_screen","","","","","","","","","","","","","","","","","","","","","","","","","",""
"","","","","","canvas-keyboard-response","149","2036599","0.0-12.0-2.27","2d_cat_multi_stim_exp1","2022-5-4","13:35:41","25","75","3","9","10","40","30","120","92","21","[""Other""]","Yes","Female","4755919","919","u","learn","","","learn_trial","25","75","in","1","1","","","","","","","","","","","","","","","","","","","","",""
"","","","","","canvas-keyboard-response","150","2037109","0.0-12.0-3.27","2d_cat_multi_stim_exp1","2022-5-4","13:35:41","25","75","3","9","10","40","30","120","92","21","[""Other""]","Yes","Female","4755919","null","null","learn_feedback","","","learn_feedback","25","75","in","","","","","","","","","","","","","","","","","","","","","","",""
"","","","","","canvas-keyboard-response","151","2037169","0.0-12.0-4.27","2d_cat_multi_stim_exp1","2022-5-4","13:35:41","25","75","3","9","10","40","30","120","92","21","[""Other""]","Yes","Female","4755919","null","null","","","","clear_screen","","","","","","","","","","","","","","","","","","","","","","","","","",""
"","","","","","canvas-keyboard-response","152","2037678","0.0-12.0-0.28","2d_cat_multi_stim_exp1","2022-5-4","13:35:41","25","75","3","9","10","40","30","120","92","21","[""Other""]","Yes","Female","4755919","null","null","","","","fixation","","","","","","","","","","","","","","","","","","","","","","","","","",""
"","","","","","canvas-keyboard-response","153","2038188","0.0-12.0-1.28","2d_cat_multi_stim_exp1","2022-5-4","13:35:41","25","75","3","9","10","40","30","120","92","21","[""Other""]","Yes","Female","4755919","null","null","","","","clear_screen","","","","","","","","","","","","","","","","","","","","","","","","","",""
"","","","","","canvas-keyboard-response","154","2038887","0.0-12.0-2.28","2d_cat_multi_stim_exp1","2022-5-4","13:35:41","25","75","3","9","10","40","30","120","92","21","[""Other""]","Yes","Female","4755919","688","i","learn","","","learn_trial","36.6667","100","out","0","1","","","","","","","","","","","","","","","","","","","","",""
"","","","","","canvas-keyboard-response","155","2039397","0.0-12.0-3.28","2d_cat_multi_stim_exp1","2022-5-4","13:35:41","25","75","3","9","10","40","30","120","92","21","[""Other""]","Yes","Female","4755919","null","null","learn_feedback","","","learn_feedback","36.6667","100","out","","","","","","","","","","","","","","","","","","","","","","",""
"","","","","","canvas-keyboard-response","156","2039458","0.0-12.0-4.28","2d_cat_multi_stim_exp1","2022-5-4","13:35:41","25","75","3","9","10","40","30","120","92","21","[""Other""]","Yes","Female","4755919","null","null","","","","clear_screen","","","","","","","","","","","","","","","","","","","","","","","","","",""
"","","","","","canvas-keyboard-response","157","2039965","0.0-12.0-0.29","2d_cat_multi_stim_exp1","2022-5-4","13:35:41","25","75","3","9","10","40","30","120","92","21","[""Other""]","Yes","Female","4755919","null","null","","","","fixation","","","","","","","","","","","","","","","","","","","","","","","","","",""
"","","","","","canvas-keyboard-response","158","2040474","0.0-12.0-1.29","2d_cat_multi_stim_exp1","2022-5-4","13:35:41","25","75","3","9","10","40","30","120","92","21","[""Other""]","Yes","Female","4755919","null","null","","","","clear_screen","","","","","","","","","","","","","","","","","","","","","","","","","",""
"","","","","","canvas-keyboard-response","159","2041135","0.0-12.0-2.29","2d_cat_multi_stim_exp1","2022-5-4","13:35:41","25","75","3","9","10","40","30","120","92","21","[""Other""]","Yes","Female","4755919","650","i","learn","","","learn_trial","29.2426","62.2721","in","0","0","","","","","","","","","","","","","","","","","","","","",""
"","","","","","canvas-keyboard-response","160","2042144","0.0-12.0-3.29","2d_cat_multi_stim_exp1","2022-5-4","13:35:41","25","75","3","9","10","40","30","120","92","21","[""Other""]","Yes","Female","4755919","null","null","learn_feedback","","","learn_feedback","29.2426","62.2721","in","","","","","","","","","","","","","","","","","","","","","","",""
"","","","","","canvas-keyboard-response","161","2042204","0.0-12.0-4.29","2d_cat_multi_stim_exp1","2022-5-4","13:35:41","25","75","3","9","10","40","30","120","92","21","[""Other""]","Yes","Female","4755919","null","null","","","","clear_screen","","","","","","","","","","","","","","","","","","","","","","","","","",""
"","","","","","canvas-keyboard-response","162","2042713","0.0-12.0-0.30","2d_cat_multi_stim_exp1","2022-5-4","13:35:41","25","75","3","9","10","40","30","120","92","21","[""Other""]","Yes","Female","4755919","null","null","","","","fixation","","","","","","","","","","","","","","","","","","","","","","","","","",""
"","","","","","canvas-keyboard-response","163","2043222","0.0-12.0-1.30","2d_cat_multi_stim_exp1","2022-5-4","13:35:41","25","75","3","9","10","40","30","120","92","21","[""Other""]","Yes","Female","4755919","null","null","","","","clear_screen","","","","","","","","","","","","","","","","","","","","","","","","","",""
"","","","","","canvas-keyboard-response","164","2044471","0.0-12.0-2.30","2d_cat_multi_stim_exp1","2022-5-4","13:35:41","25","75","3","9","10","40","30","120","92","21","[""Other""]","Yes","Female","4755919","1240","u","learn","","","learn_trial","27.2592","69.0786","in","1","1","","","","","","","","","","","","","","","","","","","","",""
"","","","","","canvas-keyboard-response","165","2044981","0.0-12.0-3.30","2d_cat_multi_stim_exp1","2022-5-4","13:35:41","25","75","3","9","10","40","30","120","92","21","[""Other""]","Yes","Female","4755919","null","null","learn_feedback","","","learn_feedback","27.2592","69.0786","in","","","","","","","","","","","","","","","","","","","","","","",""
"","","","","","canvas-keyboard-response","166","2045040","0.0-12.0-4.30","2d_cat_multi_stim_exp1","2022-5-4","13:35:41","25","75","3","9","10","40","30","120","92","21","[""Other""]","Yes","Female","4755919","null","null","","","","clear_screen","","","","","","","","","","","","","","","","","","","","","","","","","",""
"","","","","","canvas-keyboard-response","167","2045549","0.0-12.0-0.31","2d_cat_multi_stim_exp1","2022-5-4","13:35:41","25","75","3","9","10","40","30","120","92","21","[""Other""]","Yes","Female","4755919","null","null","","","","fixation","","","","","","","","","","","","","","","","","","","","","","","","","",""
"","","","","","canvas-keyboard-response","168","2046058","0.0-12.0-1.31","2d_cat_multi_stim_exp1","2022-5-4","13:35:41","25","75","3","9","10","40","30","120","92","21","[""Other""]","Yes","Female","4755919","null","null","","","","clear_screen","","","","","","","","","","","","","","","","","","","","","","","","","",""
"","","","","","canvas-keyboard-response","169","2046967","0.0-12.0-2.31","2d_cat_multi_stim_exp1","2022-5-4","13:35:41","25","75","3","9","10","40","30","120","92","21","[""Other""]","Yes","Female","4755919","900","u","learn","","","learn_trial","25","75","in","1","1","","","","","","","","","","","","","","","","","","","","",""
"","","","","","canvas-keyboard-response","170","2047478","0.0-12.0-3.31","2d_cat_multi_stim_exp1","2022-5-4","13:35:41","25","75","3","9","10","40","30","120","92","21","[""Other""]","Yes","Female","4755919","null","null","learn_feedback","","","learn_feedback","25","75","in","","","","","","","","","","","","","","","","","","","","","","",""
"","","","","","canvas-keyboard-response","171","2047536","0.0-12.0-4.31","2d_cat_multi_stim_exp1","2022-5-4","13:35:41","25","75","3","9","10","40","30","120","92","21","[""Other""]","Yes","Female","4755919","null","null","","","","clear_screen","","","","","","","","","","","","","","","","","","","","","","","","","",""
"","","","","","canvas-keyboard-response","172","2048046","0.0-12.0-0.32","2d_cat_multi_stim_exp1","2022-5-4","13:35:41","25","75","3","9","10","40","30","120","92","21","[""Other""]","Yes","Female","4755919","null","null","","","","fixation","","","","","","","","","","","","","","","","","","","","","","","","","",""
"","","","","","canvas-keyboard-response","173","2048555","0.0-12.0-1.32","2d_cat_multi_stim_exp1","2022-5-4","13:35:41","25","75","3","9","10","40","30","120","92","21","[""Other""]","Yes","Female","4755919","null","null","","","","clear_screen","","","","","","","","","","","","","","","","","","","","","","","","","",""
"","","","","","canvas-keyboard-response","174","2049439","0.0-12.0-2.32","2d_cat_multi_stim_exp1","2022-5-4","13:35:41","25","75","3","9","10","40","30","120","92","21","[""Other""]","Yes","Female","4755919","874","u","learn","","","learn_trial","25","75","in","1","1","","","","","","","","","","","","","","","","","","","","",""
"","","","","","canvas-keyboard-response","175","2049947","0.0-12.0-3.32","2d_cat_multi_stim_exp1","2022-5-4","13:35:41","25","75","3","9","10","40","30","120","92","21","[""Other""]","Yes","Female","4755919","null","null","learn_feedback","","","learn_feedback","25","75","in","","","","","","","","","","","","","","","","","","","","","","",""
"","","","","","canvas-keyboard-response","176","2050006","0.0-12.0-4.32","2d_cat_multi_stim_exp1","2022-5-4","13:35:41","25","75","3","9","10","40","30","120","92","21","[""Other""]","Yes","Female","4755919","null","null","","","","clear_screen","","","","","","","","","","","","","","","","","","","","","","","","","",""
"","","","","","canvas-keyboard-response","177","2050516","0.0-12.0-0.33","2d_cat_multi_stim_exp1","2022-5-4","13:35:41","25","75","3","9","10","40","30","120","92","21","[""Other""]","Yes","Female","4755919","null","null","","","","fixation","","","","","","","","","","","","","","","","","","","","","","","","","",""
"","","","","","canvas-keyboard-response","178","2051025","0.0-12.0-1.33","2d_cat_multi_stim_exp1","2022-5-4","13:35:41","25","75","3","9","10","40","30","120","92","21","[""Other""]","Yes","Female","4755919","null","null","","","","clear_screen","","","","","","","","","","","","","","","","","","","","","","","","","",""
"","","","","","canvas-keyboard-response","179","2051766","0.0-12.0-2.33","2d_cat_multi_stim_exp1","2022-5-4","13:35:41","25","75","3","9","10","40","30","120","92","21","[""Other""]","Yes","Female","4755919","731","u","learn","","","learn_trial","25","75","in","1","1","","","","","","","","","","","","","","","","","","","","",""
"","","","","","canvas-keyboard-response","180","2052277","0.0-12.0-3.33","2d_cat_multi_stim_exp1","2022-5-4","13:35:41","25","75","3","9","10","40","30","120","92","21","[""Other""]","Yes","Female","4755919","null","null","learn_feedback","","","learn_feedback","25","75","in","","","","","","","","","","","","","","","","","","","","","","",""
"","","","","","canvas-keyboard-response","181","2052336","0.0-12.0-4.33","2d_cat_multi_stim_exp1","2022-5-4","13:35:41","25","75","3","9","10","40","30","120","92","21","[""Other""]","Yes","Female","4755919","null","null","","","","clear_screen","","","","","","","","","","","","","","","","","","","","","","","","","",""
"","","","","","canvas-keyboard-response","182","2052845","0.0-12.0-0.34","2d_cat_multi_stim_exp1","2022-5-4","13:35:41","25","75","3","9","10","40","30","120","92","21","[""Other""]","Yes","Female","4755919","null","null","","","","fixation","","","","","","","","","","","","","","","","","","","","","","","","","",""
"","","","","","canvas-keyboard-response","183","2053354","0.0-12.0-1.34","2d_cat_multi_stim_exp1","2022-5-4","13:35:41","25","75","3","9","10","40","30","120","92","21","[""Other""]","Yes","Female","4755919","null","null","","","","clear_screen","","","","","","","","","","","","","","","","","","","","","","","","","",""
"","","","","","canvas-keyboard-response","184","2054102","0.0-12.0-2.34","2d_cat_multi_stim_exp1","2022-5-4","13:35:41","25","75","3","9","10","40","30","120","92","21","[""Other""]","Yes","Female","4755919","738","i","learn","","","learn_trial","13.3333","60","out","0","1","","","","","","","","","","","","","","","","","","","","",""
"","","","","","canvas-keyboard-response","185","2054612","0.0-12.0-3.34","2d_cat_multi_stim_exp1","2022-5-4","13:35:41","25","75","3","9","10","40","30","120","92","21","[""Other""]","Yes","Female","4755919","null","null","learn_feedback","","","learn_feedback","13.3333","60","out","","","","","","","","","","","","","","","","","","","","","","",""
"","","","","","canvas-keyboard-response","186","2054671","0.0-12.0-4.34","2d_cat_multi_stim_exp1","2022-5-4","13:35:41","25","75","3","9","10","40","30","120","92","21","[""Other""]","Yes","Female","4755919","null","null","","","","clear_screen","","","","","","","","","","","","","","","","","","","","","","","","","",""
"","","","","","canvas-keyboard-response","187","2055180","0.0-12.0-0.35","2d_cat_multi_stim_exp1","2022-5-4","13:35:41","25","75","3","9","10","40","30","120","92","21","[""Other""]","Yes","Female","4755919","null","null","","","","fixation","","","","","","","","","","","","","","","","","","","","","","","","","",""
"","","","","","canvas-keyboard-response","188","2055692","0.0-12.0-1.35","2d_cat_multi_stim_exp1","2022-5-4","13:35:41","25","75","3","9","10","40","30","120","92","21","[""Other""]","Yes","Female","4755919","null","null","","","","clear_screen","","","","","","","","","","","","","","","","","","","","","","","","","",""
"","","","","","canvas-keyboard-response","189","2056398","0.0-12.0-2.35","2d_cat_multi_stim_exp1","2022-5-4","13:35:41","25","75","3","9","10","40","30","120","92","21","[""Other""]","Yes","Female","4755919","698","i","learn","","","learn_trial","36.6667","60","out","0","1","","","","","","","","","","","","","","","","","","","","",""
"","","","","","canvas-keyboard-response","190","2056909","0.0-12.0-3.35","2d_cat_multi_stim_exp1","2022-5-4","13:35:41","25","75","3","9","10","40","30","120","92","21","[""Other""]","Yes","Female","4755919","null","null","learn_feedback","","","learn_feedback","36.6667","60","out","","","","","","","","","","","","","","","","","","","","","","",""
"","","","","","canvas-keyboard-response","191","2056968","0.0-12.0-4.35","2d_cat_multi_stim_exp1","2022-5-4","13:35:41","25","75","3","9","10","40","30","120","92","21","[""Other""]","Yes","Female","4755919","null","null","","","","clear_screen","","","","","","","","","","","","","","","","","","","","","","","","","",""
"","","","","","canvas-keyboard-response","192","2057477","0.0-12.0-0.36","2d_cat_multi_stim_exp1","2022-5-4","13:35:41","25","75","3","9","10","40","30","120","92","21","[""Other""]","Yes","Female","4755919","null","null","","","","fixation","","","","","","","","","","","","","","","","","","","","","","","","","",""
"","","","","","canvas-keyboard-response","193","2057986","0.0-12.0-1.36","2d_cat_multi_stim_exp1","2022-5-4","13:35:41","25","75","3","9","10","40","30","120","92","21","[""Other""]","Yes","Female","4755919","null","null","","","","clear_screen","","","","","","","","","","","","","","","","","","","","","","","","","",""
"","","","","","canvas-keyboard-response","194","2058726","0.0-12.0-2.36","2d_cat_multi_stim_exp1","2022-5-4","13:35:41","25","75","3","9","10","40","30","120","92","21","[""Other""]","Yes","Female","4755919","731","u","learn","","","learn_trial","26.6667","80","out","1","0","","","","","","","","","","","","","","","","","","","","",""
"","","","","","canvas-keyboard-response","195","2059737","0.0-12.0-3.36","2d_cat_multi_stim_exp1","2022-5-4","13:35:41","25","75","3","9","10","40","30","120","92","21","[""Other""]","Yes","Female","4755919","null","null","learn_feedback","","","learn_feedback","26.6667","80","out","","","","","","","","","","","","","","","","","","","","","","",""
"","","","","","canvas-keyboard-response","196","2059795","0.0-12.0-4.36","2d_cat_multi_stim_exp1","2022-5-4","13:35:41","25","75","3","9","10","40","30","120","92","21","[""Other""]","Yes","Female","4755919","null","null","","","","clear_screen","","","","","","","","","","","","","","","","","","","","","","","","","",""
"","","","","","canvas-keyboard-response","197","2060304","0.0-12.0-0.37","2d_cat_multi_stim_exp1","2022-5-4","13:35:41","25","75","3","9","10","40","30","120","92","21","[""Other""]","Yes","Female","4755919","null","null","","","","fixation","","","","","","","","","","","","","","","","","","","","","","","","","",""
"","","","","","canvas-keyboard-response","198","2060814","0.0-12.0-1.37","2d_cat_multi_stim_exp1","2022-5-4","13:35:41","25","75","3","9","10","40","30","120","92","21","[""Other""]","Yes","Female","4755919","null","null","","","","clear_screen","","","","","","","","","","","","","","","","","","","","","","","","","",""
"","","","","","canvas-keyboard-response","199","2061471","0.0-12.0-2.37","2d_cat_multi_stim_exp1","2022-5-4","13:35:41","25","75","3","9","10","40","30","120","92","21","[""Other""]","Yes","Female","4755919","647","i","learn","","","learn_trial","16.6667","50","out","0","1","","","","","","","","","","","","","","","","","","","","",""
"","","","","","canvas-keyboard-response","200","2061981","0.0-12.0-3.37","2d_cat_multi_stim_exp1","2022-5-4","13:35:41","25","75","3","9","10","40","30","120","92","21","[""Other""]","Yes","Female","4755919","null","null","learn_feedback","","","learn_feedback","16.6667","50","out","","","","","","","","","","","","","","","","","","","","","","",""
"","","","","","canvas-keyboard-response","201","2062041","0.0-12.0-4.37","2d_cat_multi_stim_exp1","2022-5-4","13:35:41","25","75","3","9","10","40","30","120","92","21","[""Other""]","Yes","Female","4755919","null","null","","","","clear_screen","","","","","","","","","","","","","","","","","","","","","","","","","",""
"","","","","","canvas-keyboard-response","202","2062549","0.0-12.0-0.38","2d_cat_multi_stim_exp1","2022-5-4","13:35:41","25","75","3","9","10","40","30","120","92","21","[""Other""]","Yes","Female","4755919","null","null","","","","fixation","","","","","","","","","","","","","","","","","","","","","","","","","",""
"","","","","","canvas-keyboard-response","203","2063060","0.0-12.0-1.38","2d_cat_multi_stim_exp1","2022-5-4","13:35:41","25","75","3","9","10","40","30","120","92","21","[""Other""]","Yes","Female","4755919","null","null","","","","clear_screen","","","","","","","","","","","","","","","","","","","","","","","","","",""
"","","","","","canvas-keyboard-response","204","2064007","0.0-12.0-2.38","2d_cat_multi_stim_exp1","2022-5-4","13:35:41","25","75","3","9","10","40","30","120","92","21","[""Other""]","Yes","Female","4755919","934","u","learn","","","learn_trial","25","75","in","1","1","","","","","","","","","","","","","","","","","","","","",""
"","","","","","canvas-keyboard-response","205","2064516","0.0-12.0-3.38","2d_cat_multi_stim_exp1","2022-5-4","13:35:41","25","75","3","9","10","40","30","120","92","21","[""Other""]","Yes","Female","4755919","null","null","learn_feedback","","","learn_feedback","25","75","in","","","","","","","","","","","","","","","","","","","","","","",""
"","","","","","canvas-keyboard-response","206","2064575","0.0-12.0-4.38","2d_cat_multi_stim_exp1","2022-5-4","13:35:41","25","75","3","9","10","40","30","120","92","21","[""Other""]","Yes","Female","4755919","null","null","","","","clear_screen","","","","","","","","","","","","","","","","","","","","","","","","","",""
"","","","","","canvas-keyboard-response","207","2065084","0.0-12.0-0.39","2d_cat_multi_stim_exp1","2022-5-4","13:35:41","25","75","3","9","10","40","30","120","92","21","[""Other""]","Yes","Female","4755919","null","null","","","","fixation","","","","","","","","","","","","","","","","","","","","","","","","","",""
"","","","","","canvas-keyboard-response","208","2065594","0.0-12.0-1.39","2d_cat_multi_stim_exp1","2022-5-4","13:35:41","25","75","3","9","10","40","30","120","92","21","[""Other""]","Yes","Female","4755919","null","null","","","","clear_screen","","","","","","","","","","","","","","","","","","","","","","","","","",""
"","","","","","canvas-keyboard-response","209","2066206","0.0-12.0-2.39","2d_cat_multi_stim_exp1","2022-5-4","13:35:41","25","75","3","9","10","40","30","120","92","21","[""Other""]","Yes","Female","4755919","602","i","learn","","","learn_trial","33.3333","30","out","0","1","","","","","","","","","","","","","","","","","","","","",""
"","","","","","canvas-keyboard-response","210","2066716","0.0-12.0-3.39","2d_cat_multi_stim_exp1","2022-5-4","13:35:41","25","75","3","9","10","40","30","120","92","21","[""Other""]","Yes","Female","4755919","null","null","learn_feedback","","","learn_feedback","33.3333","30","out","","","","","","","","","","","","","","","","","","","","","","",""
"","","","","","canvas-keyboard-response","211","2066776","0.0-12.0-4.39","2d_cat_multi_stim_exp1","2022-5-4","13:35:41","25","75","3","9","10","40","30","120","92","21","[""Other""]","Yes","Female","4755919","null","null","","","","clear_screen","","","","","","","","","","","","","","","","","","","","","","","","","",""
"","","","","","canvas-keyboard-response","212","2067284","0.0-12.0-0.40","2d_cat_multi_stim_exp1","2022-5-4","13:35:41","25","75","3","9","10","40","30","120","92","21","[""Other""]","Yes","Female","4755919","null","null","","","","fixation","","","","","","","","","","","","","","","","","","","","","","","","","",""
"","","","","","canvas-keyboard-response","213","2067793","0.0-12.0-1.40","2d_cat_multi_stim_exp1","2022-5-4","13:35:41","25","75","3","9","10","40","30","120","92","21","[""Other""]","Yes","Female","4755919","null","null","","","","clear_screen","","","","","","","","","","","","","","","","","","","","","","","","","",""
"","","","","","canvas-keyboard-response","214","2068655","0.0-12.0-2.40","2d_cat_multi_stim_exp1","2022-5-4","13:35:41","25","75","3","9","10","40","30","120","92","21","[""Other""]","Yes","Female","4755919","852","i","learn","","","learn_trial","33.3333","110","out","0","1","","","","","","","","","","","","","","","","","","","","",""
"","","","","","canvas-keyboard-response","215","2069164","0.0-12.0-3.40","2d_cat_multi_stim_exp1","2022-5-4","13:35:41","25","75","3","9","10","40","30","120","92","21","[""Other""]","Yes","Female","4755919","null","null","learn_feedback","","","learn_feedback","33.3333","110","out","","","","","","","","","","","","","","","","","","","","","","",""
"","","","","","canvas-keyboard-response","216","2069223","0.0-12.0-4.40","2d_cat_multi_stim_exp1","2022-5-4","13:35:41","25","75","3","9","10","40","30","120","92","21","[""Other""]","Yes","Female","4755919","null","null","","","","clear_screen","","","","","","","","","","","","","","","","","","","","","","","","","",""
"","","","","","canvas-keyboard-response","217","2069732","0.0-12.0-0.41","2d_cat_multi_stim_exp1","2022-5-4","13:35:41","25","75","3","9","10","40","30","120","92","21","[""Other""]","Yes","Female","4755919","null","null","","","","fixation","","","","","","","","","","","","","","","","","","","","","","","","","",""
"","","","","","canvas-keyboard-response","218","2070242","0.0-12.0-1.41","2d_cat_multi_stim_exp1","2022-5-4","13:35:41","25","75","3","9","10","40","30","120","92","21","[""Other""]","Yes","Female","4755919","null","null","","","","clear_screen","","","","","","","","","","","","","","","","","","","","","","","","","",""
"","","","","","canvas-keyboard-response","219","2072087","0.0-12.0-2.41","2d_cat_multi_stim_exp1","2022-5-4","13:35:41","25","75","3","9","10","40","30","120","92","21","[""Other""]","Yes","Female","4755919","1835","u","learn","","","learn_trial","22.0121","74.1932","in","1","1","","","","","","","","","","","","","","","","","","","","",""
"","","","","","canvas-keyboard-response","220","2072600","0.0-12.0-3.41","2d_cat_multi_stim_exp1","2022-5-4","13:35:41","25","75","3","9","10","40","30","120","92","21","[""Other""]","Yes","Female","4755919","null","null","learn_feedback","","","learn_feedback","22.0121","74.1932","in","","","","","","","","","","","","","","","","","","","","","","",""
"","","","","","canvas-keyboard-response","221","2072663","0.0-12.0-4.41","2d_cat_multi_stim_exp1","2022-5-4","13:35:41","25","75","3","9","10","40","30","120","92","21","[""Other""]","Yes","Female","4755919","null","null","","","","clear_screen","","","","","","","","","","","","","","","","","","","","","","","","","",""
"","","","","","canvas-keyboard-response","222","2073173","0.0-12.0-0.42","2d_cat_multi_stim_exp1","2022-5-4","13:35:41","25","75","3","9","10","40","30","120","92","21","[""Other""]","Yes","Female","4755919","null","null","","","","fixation","","","","","","","","","","","","","","","","","","","","","","","","","",""
"","","","","","canvas-keyboard-response","223","2073685","0.0-12.0-1.42","2d_cat_multi_stim_exp1","2022-5-4","13:35:41","25","75","3","9","10","40","30","120","92","21","[""Other""]","Yes","Female","4755919","null","null","","","","clear_screen","","","","","","","","","","","","","","","","","","","","","","","","","",""
"","","","","","canvas-keyboard-response","224","2074551","0.0-12.0-2.42","2d_cat_multi_stim_exp1","2022-5-4","13:35:41","25","75","3","9","10","40","30","120","92","21","[""Other""]","Yes","Female","4755919","856","u","learn","","","learn_trial","22.1081","77.3943","in","1","1","","","","","","","","","","","","","","","","","","","","",""
"","","","","","canvas-keyboard-response","225","2075062","0.0-12.0-3.42","2d_cat_multi_stim_exp1","2022-5-4","13:35:41","25","75","3","9","10","40","30","120","92","21","[""Other""]","Yes","Female","4755919","null","null","learn_feedback","","","learn_feedback","22.1081","77.3943","in","","","","","","","","","","","","","","","","","","","","","","",""
"","","","","","canvas-keyboard-response","226","2075122","0.0-12.0-4.42","2d_cat_multi_stim_exp1","2022-5-4","13:35:41","25","75","3","9","10","40","30","120","92","21","[""Other""]","Yes","Female","4755919","null","null","","","","clear_screen","","","","","","","","","","","","","","","","","","","","","","","","","",""
"","","","","","canvas-keyboard-response","227","2075631","0.0-12.0-0.43","2d_cat_multi_stim_exp1","2022-5-4","13:35:41","25","75","3","9","10","40","30","120","92","21","[""Other""]","Yes","Female","4755919","null","null","","","","fixation","","","","","","","","","","","","","","","","","","","","","","","","","",""
"","","","","","canvas-keyboard-response","228","2076141","0.0-12.0-1.43","2d_cat_multi_stim_exp1","2022-5-4","13:35:41","25","75","3","9","10","40","30","120","92","21","[""Other""]","Yes","Female","4755919","null","null","","","","clear_screen","","","","","","","","","","","","","","","","","","","","","","","","","",""
"","","","","","canvas-keyboard-response","229","2077007","0.0-12.0-2.43","2d_cat_multi_stim_exp1","2022-5-4","13:35:41","25","75","3","9","10","40","30","120","92","21","[""Other""]","Yes","Female","4755919","857","i","learn","","","learn_trial","25","75","in","0","0","","","","","","","","","","","","","","","","","","","","",""
"","","","","","canvas-keyboard-response","230","2078017","0.0-12.0-3.43","2d_cat_multi_stim_exp1","2022-5-4","13:35:41","25","75","3","9","10","40","30","120","92","21","[""Other""]","Yes","Female","4755919","null","null","learn_feedback","","","learn_feedback","25","75","in","","","","","","","","","","","","","","","","","","","","","","",""
"","","","","","canvas-keyboard-response","231","2078077","0.0-12.0-4.43","2d_cat_multi_stim_exp1","2022-5-4","13:35:41","25","75","3","9","10","40","30","120","92","21","[""Other""]","Yes","Female","4755919","null","null","","","","clear_screen","","","","","","","","","","","","","","","","","","","","","","","","","",""
"","","","","","canvas-keyboard-response","232","2078587","0.0-12.0-0.44","2d_cat_multi_stim_exp1","2022-5-4","13:35:41","25","75","3","9","10","40","30","120","92","21","[""Other""]","Yes","Female","4755919","null","null","","","","fixation","","","","","","","","","","","","","","","","","","","","","","","","","",""
"","","","","","canvas-keyboard-response","233","2079096","0.0-12.0-1.44","2d_cat_multi_stim_exp1","2022-5-4","13:35:41","25","75","3","9","10","40","30","120","92","21","[""Other""]","Yes","Female","4755919","null","null","","","","clear_screen","","","","","","","","","","","","","","","","","","","","","","","","","",""
"","","","","","canvas-keyboard-response","234","2080182","0.0-12.0-2.44","2d_cat_multi_stim_exp1","2022-5-4","13:35:41","25","75","3","9","10","40","30","120","92","21","[""Other""]","Yes","Female","4755919","1076","u","learn","","","learn_trial","25","75","in","1","1","","","","","","","","","","","","","","","","","","","","",""
"","","","","","canvas-keyboard-response","235","2080693","0.0-12.0-3.44","2d_cat_multi_stim_exp1","2022-5-4","13:35:41","25","75","3","9","10","40","30","120","92","21","[""Other""]","Yes","Female","4755919","null","null","learn_feedback","","","learn_feedback","25","75","in","","","","","","","","","","","","","","","","","","","","","","",""
"","","","","","canvas-keyboard-response","236","2080752","0.0-12.0-4.44","2d_cat_multi_stim_exp1","2022-5-4","13:35:41","25","75","3","9","10","40","30","120","92","21","[""Other""]","Yes","Female","4755919","null","null","","","","clear_screen","","","","","","","","","","","","","","","","","","","","","","","","","",""
"","","","","","canvas-keyboard-response","237","2081262","0.0-12.0-0.45","2d_cat_multi_stim_exp1","2022-5-4","13:35:41","25","75","3","9","10","40","30","120","92","21","[""Other""]","Yes","Female","4755919","null","null","","","","fixation","","","","","","","","","","","","","","","","","","","","","","","","","",""
"","","","","","canvas-keyboard-response","238","2081772","0.0-12.0-1.45","2d_cat_multi_stim_exp1","2022-5-4","13:35:41","25","75","3","9","10","40","30","120","92","21","[""Other""]","Yes","Female","4755919","null","null","","","","clear_screen","","","","","","","","","","","","","","","","","","","","","","","","","",""
"","","","","","canvas-keyboard-response","239","2082407","0.0-12.0-2.45","2d_cat_multi_stim_exp1","2022-5-4","13:35:41","25","75","3","9","10","40","30","120","92","21","[""Other""]","Yes","Female","4755919","625","i","learn","","","learn_trial","10","80","out","0","1","","","","","","","","","","","","","","","","","","","","",""
"","","","","","canvas-keyboard-response","240","2082916","0.0-12.0-3.45","2d_cat_multi_stim_exp1","2022-5-4","13:35:41","25","75","3","9","10","40","30","120","92","21","[""Other""]","Yes","Female","4755919","null","null","learn_feedback","","","learn_feedback","10","80","out","","","","","","","","","","","","","","","","","","","","","","",""
"","","","","","canvas-keyboard-response","241","2082975","0.0-12.0-4.45","2d_cat_multi_stim_exp1","2022-5-4","13:35:41","25","75","3","9","10","40","30","120","92","21","[""Other""]","Yes","Female","4755919","null","null","","","","clear_screen","","","","","","","","","","","","","","","","","","","","","","","","","",""
"","","","","","canvas-keyboard-response","242","2083483","0.0-12.0-0.46","2d_cat_multi_stim_exp1","2022-5-4","13:35:41","25","75","3","9","10","40","30","120","92","21","[""Other""]","Yes","Female","4755919","null","null","","","","fixation","","","","","","","","","","","","","","","","","","","","","","","","","",""
"","","","","","canvas-keyboard-response","243","2083994","0.0-12.0-1.46","2d_cat_multi_stim_exp1","2022-5-4","13:35:41","25","75","3","9","10","40","30","120","92","21","[""Other""]","Yes","Female","4755919","null","null","","","","clear_screen","","","","","","","","","","","","","","","","","","","","","","","","","",""
"","","","","","canvas-keyboard-response","244","2088055","0.0-12.0-2.46","2d_cat_multi_stim_exp1","2022-5-4","13:35:41","25","75","3","9","10","40","30","120","92","21","[""Other""]","Yes","Female","4755919","4052","i","learn","","","learn_trial","28","75","in","0","0","","","","","","","","","","","","","","","","","","","","",""
"","","","","","canvas-keyboard-response","245","2089065","0.0-12.0-3.46","2d_cat_multi_stim_exp1","2022-5-4","13:35:41","25","75","3","9","10","40","30","120","92","21","[""Other""]","Yes","Female","4755919","null","null","learn_feedback","","","learn_feedback","28","75","in","","","","","","","","","","","","","","","","","","","","","","",""
"","","","","","canvas-keyboard-response","246","2089124","0.0-12.0-4.46","2d_cat_multi_stim_exp1","2022-5-4","13:35:41","25","75","3","9","10","40","30","120","92","21","[""Other""]","Yes","Female","4755919","null","null","","","","clear_screen","","","","","","","","","","","","","","","","","","","","","","","","","",""
"","","","","","canvas-keyboard-response","247","2089634","0.0-12.0-0.47","2d_cat_multi_stim_exp1","2022-5-4","13:35:41","25","75","3","9","10","40","30","120","92","21","[""Other""]","Yes","Female","4755919","null","null","","","","fixation","","","","","","","","","","","","","","","","","","","","","","","","","",""
"","","","","","canvas-keyboard-response","248","2090143","0.0-12.0-1.47","2d_cat_multi_stim_exp1","2022-5-4","13:35:41","25","75","3","9","10","40","30","120","92","21","[""Other""]","Yes","Female","4755919","null","null","","","","clear_screen","","","","","","","","","","","","","","","","","","","","","","","","","",""
"","","","","","canvas-keyboard-response","249","2090887","0.0-12.0-2.47","2d_cat_multi_stim_exp1","2022-5-4","13:35:41","25","75","3","9","10","40","30","120","92","21","[""Other""]","Yes","Female","4755919","729","i","learn","","","learn_trial","23.3333","40","out","0","1","","","","","","","","","","","","","","","","","","","","",""
"","","","","","canvas-keyboard-response","250","2091396","0.0-12.0-3.47","2d_cat_multi_stim_exp1","2022-5-4","13:35:41","25","75","3","9","10","40","30","120","92","21","[""Other""]","Yes","Female","4755919","null","null","learn_feedback","","","learn_feedback","23.3333","40","out","","","","","","","","","","","","","","","","","","","","","","",""
"","","","","","canvas-keyboard-response","251","2091456","0.0-12.0-4.47","2d_cat_multi_stim_exp1","2022-5-4","13:35:41","25","75","3","9","10","40","30","120","92","21","[""Other""]","Yes","Female","4755919","null","null","","","","clear_screen","","","","","","","","","","","","","","","","","","","","","","","","","",""
"","","","","","canvas-keyboard-response","252","2091965","0.0-12.0-0.48","2d_cat_multi_stim_exp1","2022-5-4","13:35:41","25","75","3","9","10","40","30","120","92","21","[""Other""]","Yes","Female","4755919","null","null","","","","fixation","","","","","","","","","","","","","","","","","","","","","","","","","",""
"","","","","","canvas-keyboard-response","253","2092474","0.0-12.0-1.48","2d_cat_multi_stim_exp1","2022-5-4","13:35:41","25","75","3","9","10","40","30","120","92","21","[""Other""]","Yes","Female","4755919","null","null","","","","clear_screen","","","","","","","","","","","","","","","","","","","","","","","","","",""
"","","","","","canvas-keyboard-response","254","2093183","0.0-12.0-2.48","2d_cat_multi_stim_exp1","2022-5-4","13:35:41","25","75","3","9","10","40","30","120","92","21","[""Other""]","Yes","Female","4755919","698","i","learn","","","learn_trial","30","120","out","0","1","","","","","","","","","","","","","","","","","","","","",""
"","","","","","canvas-keyboard-response","255","2093692","0.0-12.0-3.48","2d_cat_multi_stim_exp1","2022-5-4","13:35:41","25","75","3","9","10","40","30","120","92","21","[""Other""]","Yes","Female","4755919","null","null","learn_feedback","","","learn_feedback","30","120","out","","","","","","","","","","","","","","","","","","","","","","",""
"","","","","","canvas-keyboard-response","256","2093751","0.0-12.0-4.48","2d_cat_multi_stim_exp1","2022-5-4","13:35:41","25","75","3","9","10","40","30","120","92","21","[""Other""]","Yes","Female","4755919","null","null","","","","clear_screen","","","","","","","","","","","","","","","","","","","","","","","","","",""
"","","","","","canvas-keyboard-response","257","2094260","0.0-12.0-0.49","2d_cat_multi_stim_exp1","2022-5-4","13:35:41","25","75","3","9","10","40","30","120","92","21","[""Other""]","Yes","Female","4755919","null","null","","","","fixation","","","","","","","","","","","","","","","","","","","","","","","","","",""
"","","","","","canvas-keyboard-response","258","2094770","0.0-12.0-1.49","2d_cat_multi_stim_exp1","2022-5-4","13:35:41","25","75","3","9","10","40","30","120","92","21","[""Other""]","Yes","Female","4755919","null","null","","","","clear_screen","","","","","","","","","","","","","","","","","","","","","","","","","",""
"","","","","","canvas-keyboard-response","259","2096054","0.0-12.0-2.49","2d_cat_multi_stim_exp1","2022-5-4","13:35:41","25","75","3","9","10","40","30","120","92","21","[""Other""]","Yes","Female","4755919","1275","u","learn","","","learn_trial","25.4027","83.9185","in","1","1","","","","","","","","","","","","","","","","","","","","",""
"","","","","","canvas-keyboard-response","260","2096564","0.0-12.0-3.49","2d_cat_multi_stim_exp1","2022-5-4","13:35:41","25","75","3","9","10","40","30","120","92","21","[""Other""]","Yes","Female","4755919","null","null","learn_feedback","","","learn_feedback","25.4027","83.9185","in","","","","","","","","","","","","","","","","","","","","","","",""
"","","","","","canvas-keyboard-response","261","2096623","0.0-12.0-4.49","2d_cat_multi_stim_exp1","2022-5-4","13:35:41","25","75","3","9","10","40","30","120","92","21","[""Other""]","Yes","Female","4755919","null","null","","","","clear_screen","","","","","","","","","","","","","","","","","","","","","","","","","",""
"","","","","","canvas-keyboard-response","262","2097132","0.0-12.0-0.50","2d_cat_multi_stim_exp1","2022-5-4","13:35:41","25","75","3","9","10","40","30","120","92","21","[""Other""]","Yes","Female","4755919","null","null","","","","fixation","","","","","","","","","","","","","","","","","","","","","","","","","",""
"","","","","","canvas-keyboard-response","263","2097642","0.0-12.0-1.50","2d_cat_multi_stim_exp1","2022-5-4","13:35:41","25","75","3","9","10","40","30","120","92","21","[""Other""]","Yes","Female","4755919","null","null","","","","clear_screen","","","","","","","","","","","","","","","","","","","","","","","","","",""
"","","","","","canvas-keyboard-response","264","2098703","0.0-12.0-2.50","2d_cat_multi_stim_exp1","2022-5-4","13:35:41","25","75","3","9","10","40","30","120","92","21","[""Other""]","Yes","Female","4755919","1048","i","learn","","","learn_trial","25","75","in","0","0","","","","","","","","","","","","","","","","","","","","",""
"","","","","","canvas-keyboard-response","265","2099712","0.0-12.0-3.50","2d_cat_multi_stim_exp1","2022-5-4","13:35:41","25","75","3","9","10","40","30","120","92","21","[""Other""]","Yes","Female","4755919","null","null","learn_feedback","","","learn_feedback","25","75","in","","","","","","","","","","","","","","","","","","","","","","",""
"","","","","","canvas-keyboard-response","266","2099772","0.0-12.0-4.50","2d_cat_multi_stim_exp1","2022-5-4","13:35:41","25","75","3","9","10","40","30","120","92","21","[""Other""]","Yes","Female","4755919","null","null","","","","clear_screen","","","","","","","","","","","","","","","","","","","","","","","","","",""
"","","","","","canvas-keyboard-response","267","2100280","0.0-12.0-0.51","2d_cat_multi_stim_exp1","2022-5-4","13:35:41","25","75","3","9","10","40","30","120","92","21","[""Other""]","Yes","Female","4755919","null","null","","","","fixation","","","","","","","","","","","","","","","","","","","","","","","","","",""
"","","","","","canvas-keyboard-response","268","2100791","0.0-12.0-1.51","2d_cat_multi_stim_exp1","2022-5-4","13:35:41","25","75","3","9","10","40","30","120","92","21","[""Other""]","Yes","Female","4755919","null","null","","","","clear_screen","","","","","","","","","","","","","","","","","","","","","","","","","",""
"","","","","","canvas-keyboard-response","269","2101783","0.0-12.0-2.51","2d_cat_multi_stim_exp1","2022-5-4","13:35:41","25","75","3","9","10","40","30","120","92","21","[""Other""]","Yes","Female","4755919","982","i","learn","","","learn_trial","22.1081","72.6057","in","0","0","","","","","","","","","","","","","","","","","","","","",""
"","","","","","canvas-keyboard-response","270","2102792","0.0-12.0-3.51","2d_cat_multi_stim_exp1","2022-5-4","13:35:41","25","75","3","9","10","40","30","120","92","21","[""Other""]","Yes","Female","4755919","null","null","learn_feedback","","","learn_feedback","22.1081","72.6057","in","","","","","","","","","","","","","","","","","","","","","","",""
"","","","","","canvas-keyboard-response","271","2102851","0.0-12.0-4.51","2d_cat_multi_stim_exp1","2022-5-4","13:35:41","25","75","3","9","10","40","30","120","92","21","[""Other""]","Yes","Female","4755919","null","null","","","","clear_screen","","","","","","","","","","","","","","","","","","","","","","","","","",""
"","","","","","canvas-keyboard-response","272","2103361","0.0-12.0-0.52","2d_cat_multi_stim_exp1","2022-5-4","13:35:41","25","75","3","9","10","40","30","120","92","21","[""Other""]","Yes","Female","4755919","null","null","","","","fixation","","","","","","","","","","","","","","","","","","","","","","","","","",""
"","","","","","canvas-keyboard-response","273","2103870","0.0-12.0-1.52","2d_cat_multi_stim_exp1","2022-5-4","13:35:41","25","75","3","9","10","40","30","120","92","21","[""Other""]","Yes","Female","4755919","null","null","","","","clear_screen","","","","","","","","","","","","","","","","","","","","","","","","","",""
"","","","","","canvas-keyboard-response","274","2104678","0.0-12.0-2.52","2d_cat_multi_stim_exp1","2022-5-4","13:35:41","25","75","3","9","10","40","30","120","92","21","[""Other""]","Yes","Female","4755919","799","i","learn","","","learn_trial","16.6667","70","out","0","1","","","","","","","","","","","","","","","","","","","","",""
"","","","","","canvas-keyboard-response","275","2105188","0.0-12.0-3.52","2d_cat_multi_stim_exp1","2022-5-4","13:35:41","25","75","3","9","10","40","30","120","92","21","[""Other""]","Yes","Female","4755919","null","null","learn_feedback","","","learn_feedback","16.6667","70","out","","","","","","","","","","","","","","","","","","","","","","",""
"","","","","","canvas-keyboard-response","276","2105248","0.0-12.0-4.52","2d_cat_multi_stim_exp1","2022-5-4","13:35:41","25","75","3","9","10","40","30","120","92","21","[""Other""]","Yes","Female","4755919","null","null","","","","clear_screen","","","","","","","","","","","","","","","","","","","","","","","","","",""
"","","","","","canvas-keyboard-response","277","2105757","0.0-12.0-0.53","2d_cat_multi_stim_exp1","2022-5-4","13:35:41","25","75","3","9","10","40","30","120","92","21","[""Other""]","Yes","Female","4755919","null","null","","","","fixation","","","","","","","","","","","","","","","","","","","","","","","","","",""
"","","","","","canvas-keyboard-response","278","2106267","0.0-12.0-1.53","2d_cat_multi_stim_exp1","2022-5-4","13:35:41","25","75","3","9","10","40","30","120","92","21","[""Other""]","Yes","Female","4755919","null","null","","","","clear_screen","","","","","","","","","","","","","","","","","","","","","","","","","",""
"","","","","","canvas-keyboard-response","279","2106926","0.0-12.0-2.53","2d_cat_multi_stim_exp1","2022-5-4","13:35:41","25","75","3","9","10","40","30","120","92","21","[""Other""]","Yes","Female","4755919","648","i","learn","","","learn_trial","20","110","out","0","1","","","","","","","","","","","","","","","","","","","","",""
"","","","","","canvas-keyboard-response","280","2107436","0.0-12.0-3.53","2d_cat_multi_stim_exp1","2022-5-4","13:35:41","25","75","3","9","10","40","30","120","92","21","[""Other""]","Yes","Female","4755919","null","null","learn_feedback","","","learn_feedback","20","110","out","","","","","","","","","","","","","","","","","","","","","","",""
"","","","","","canvas-keyboard-response","281","2107495","0.0-12.0-4.53","2d_cat_multi_stim_exp1","2022-5-4","13:35:41","25","75","3","9","10","40","30","120","92","21","[""Other""]","Yes","Female","4755919","null","null","","","","clear_screen","","","","","","","","","","","","","","","","","","","","","","","","","",""
"","","","","","canvas-keyboard-response","282","2108006","0.0-12.0-0.54","2d_cat_multi_stim_exp1","2022-5-4","13:35:41","25","75","3","9","10","40","30","120","92","21","[""Other""]","Yes","Female","4755919","null","null","","","","fixation","","","","","","","","","","","","","","","","","","","","","","","","","",""
"","","","","","canvas-keyboard-response","283","2108515","0.0-12.0-1.54","2d_cat_multi_stim_exp1","2022-5-4","13:35:41","25","75","3","9","10","40","30","120","92","21","[""Other""]","Yes","Female","4755919","null","null","","","","clear_screen","","","","","","","","","","","","","","","","","","","","","","","","","",""
"","","","","","canvas-keyboard-response","284","2109798","0.0-12.0-2.54","2d_cat_multi_stim_exp1","2022-5-4","13:35:41","25","75","3","9","10","40","30","120","92","21","[""Other""]","Yes","Female","4755919","1273","u","learn","","","learn_trial","25","75","in","1","1","","","","","","","","","","","","","","","","","","","","",""
"","","","","","canvas-keyboard-response","285","2110307","0.0-12.0-3.54","2d_cat_multi_stim_exp1","2022-5-4","13:35:41","25","75","3","9","10","40","30","120","92","21","[""Other""]","Yes","Female","4755919","null","null","learn_feedback","","","learn_feedback","25","75","in","","","","","","","","","","","","","","","","","","","","","","",""
"","","","","","canvas-keyboard-response","286","2110366","0.0-12.0-4.54","2d_cat_multi_stim_exp1","2022-5-4","13:35:41","25","75","3","9","10","40","30","120","92","21","[""Other""]","Yes","Female","4755919","null","null","","","","clear_screen","","","","","","","","","","","","","","","","","","","","","","","","","",""
"","","","","","canvas-keyboard-response","287","2110874","0.0-12.0-0.55","2d_cat_multi_stim_exp1","2022-5-4","13:35:41","25","75","3","9","10","40","30","120","92","21","[""Other""]","Yes","Female","4755919","null","null","","","","fixation","","","","","","","","","","","","","","","","","","","","","","","","","",""
"","","","","","canvas-keyboard-response","288","2111384","0.0-12.0-1.55","2d_cat_multi_stim_exp1","2022-5-4","13:35:41","25","75","3","9","10","40","30","120","92","21","[""Other""]","Yes","Female","4755919","null","null","","","","clear_screen","","","","","","","","","","","","","","","","","","","","","","","","","",""
"","","","","","canvas-keyboard-response","289","2112166","0.0-12.0-2.55","2d_cat_multi_stim_exp1","2022-5-4","13:35:41","25","75","3","9","10","40","30","120","92","21","[""Other""]","Yes","Female","4755919","773","i","learn","","","learn_trial","33.3333","80","out","0","1","","","","","","","","","","","","","","","","","","","","",""
"","","","","","canvas-keyboard-response","290","2112676","0.0-12.0-3.55","2d_cat_multi_stim_exp1","2022-5-4","13:35:41","25","75","3","9","10","40","30","120","92","21","[""Other""]","Yes","Female","4755919","null","null","learn_feedback","","","learn_feedback","33.3333","80","out","","","","","","","","","","","","","","","","","","","","","","",""
"","","","","","canvas-keyboard-response","291","2112735","0.0-12.0-4.55","2d_cat_multi_stim_exp1","2022-5-4","13:35:41","25","75","3","9","10","40","30","120","92","21","[""Other""]","Yes","Female","4755919","null","null","","","","clear_screen","","","","","","","","","","","","","","","","","","","","","","","","","",""
"","","","","","canvas-keyboard-response","292","2113244","0.0-12.0-0.56","2d_cat_multi_stim_exp1","2022-5-4","13:35:41","25","75","3","9","10","40","30","120","92","21","[""Other""]","Yes","Female","4755919","null","null","","","","fixation","","","","","","","","","","","","","","","","","","","","","","","","","",""
"","","","","","canvas-keyboard-response","293","2113753","0.0-12.0-1.56","2d_cat_multi_stim_exp1","2022-5-4","13:35:41","25","75","3","9","10","40","30","120","92","21","[""Other""]","Yes","Female","4755919","null","null","","","","clear_screen","","","","","","","","","","","","","","","","","","","","","","","","","",""
"","","","","","canvas-keyboard-response","294","2114494","0.0-12.0-2.56","2d_cat_multi_stim_exp1","2022-5-4","13:35:41","25","75","3","9","10","40","30","120","92","21","[""Other""]","Yes","Female","4755919","728","i","learn","","","learn_trial","33.3333","120","out","0","1","","","","","","","","","","","","","","","","","","","","",""
"","","","","","canvas-keyboard-response","295","2115004","0.0-12.0-3.56","2d_cat_multi_stim_exp1","2022-5-4","13:35:41","25","75","3","9","10","40","30","120","92","21","[""Other""]","Yes","Female","4755919","null","null","learn_feedback","","","learn_feedback","33.3333","120","out","","","","","","","","","","","","","","","","","","","","","","",""
