"success","timeout","failed_images","failed_audio","failed_video","trial_type","trial_index","time_elapsed","internal_node_id","exp_name","date","time","angle_mean_in","radius_mean_in","angle_sd_in","radius_sd_in","angle_min_out","angle_max_out","radius_min_out","radius_max_out","sub_n","age","race","ethnicity","gender","exp_duration","rt","stimulus","response","exp_trial_type","view_history","screen_id","angle","radius","distribution","choice","correct","order","angle_a","radius_a","angle_b","radius_b","jkl_correct","transfer_trial_type","choice_set","abc_correct","tc_correct","tc_angle","tdc_a","tdc_b","tdc_c","pair","category_a","category_b","category_c","angle_c","radius_c","question_order"
"true","false","[]","[]","[]","preload","0","28","0.0-0.0","2d_cat_multi_stim_exp1","2022-4-4","12:31:42","25","75","3","9","10","40","30","120","11","19","[""White""]","No","Female","2423990","","","","","","","","","","","","","","","","","","","","","","","","","","","","","","","",""
"","","","","","html-button-response","1","4528","0.0-1.0","2d_cat_multi_stim_exp1","2022-4-4","12:31:42","25","75","3","9","10","40","30","120","11","19","[""White""]","No","Female","2423990","4499","<p><b>WAIT!</b></p></p><p>Did you mean to start this experiment? Only Walker, Esther, and Sean are running participants on this experiment.</p>","0","","","","","","","","","","","","","","","","","","","","","","","","","","","","",""
"","","","","","survey-html-form","2","9344","0.0-2.0","2d_cat_multi_stim_exp1","2022-4-4","12:31:42","25","75","3","9","10","40","30","120","11","19","[""White""]","No","Female","2423990","4793","","{""response"":""11""}","enter-sub-number","","","","","","","","","","","","","","","","","","","","","","","","","","","",""
"true","","","","","fullscreen","3","11784","0.0-3.0","2d_cat_multi_stim_exp1","2022-4-4","12:31:42","25","75","3","9","10","40","30","120","11","19","[""White""]","No","Female","2423990","","","","","","","","","","","","","","","","","","","","","","","","","","","","","","","",""
"","","","","","image-button-response","4","25840","0.0-4.0","2d_cat_multi_stim_exp1","2022-4-4","12:31:42","25","75","3","9","10","40","30","120","11","19","[""White""]","No","Female","2423990","14047","consent.png","0","","","","","","","","","","","","","","","","","","","","","","","","","","","","",""
"","","","","","html-button-response","5","27408","0.0-5.0","2d_cat_multi_stim_exp1","2022-4-4","12:31:42","25","75","3","9","10","40","30","120","11","19","[""White""]","No","Female","2423990","1562","<div style= ""font-size:25px;"" <p> <strong> Welcome to the experiment! </strong><br> <p style=""color:#8B0000; font-size:25px;""><strong> Please do NOT exit full screen until you are done with the experiment. </strong> </p><p style=""font-size:25px;color:#8B0000;""> <strong> The experiment will be canceled and your data will be lost <br> if you try to go back or refresh the page at any point during the experiment.</strong> </p><br><p> <strong> Thanks in advance for your contribution to our research! </strong></p>","0","","","","","","","","","","","","","","","","","","","","","","","","","","","","",""
"","","","","","instructions","6","69295","0.0-6.0","2d_cat_multi_stim_exp1","2022-4-4","12:31:42","25","75","3","9","10","40","30","120","11","19","[""White""]","No","Female","2423990","41885","","","","[{""page_index"":0,""viewing_time"":5140},{""page_index"":1,""viewing_time"":2344},{""page_index"":2,""viewing_time"":12424},{""page_index"":3,""viewing_time"":21976}]","instructions_1","","","","","","","","","","","","","","","","","","","","","","","","","",""
"","","","","","instructions","7","72735","0.0-7.0","2d_cat_multi_stim_exp1","2022-4-4","12:31:42","25","75","3","9","10","40","30","120","11","19","[""White""]","No","Female","2423990","3435","","","","[{""page_index"":0,""viewing_time"":3435}]","Click to see the kinds of turtles that will appear in the study.","","","","","","","","","","","","","","","","","","","","","","","","","",""
"","","","","","canvas-keyboard-response","8","87758","0.0-8.0","2d_cat_multi_stim_exp1","2022-4-4","12:31:42","25","75","3","9","10","40","30","120","11","19","[""White""]","No","Female","2423990","null","","null","","","demo_range","","","","","","","","","","","","","","","","","","","","","","","","","",""
"","","","","","instructions","9","90991","0.0-9.0","2d_cat_multi_stim_exp1","2022-4-4","12:31:42","25","75","3","9","10","40","30","120","11","19","[""White""]","No","Female","2423990","2731","","","","[{""page_index"":0,""viewing_time"":2731}]","Click to see some turtles in the subspecies.","","","","","","","","","","","","","","","","","","","","","","","","","",""
"","","","","","canvas-keyboard-response","10","106011","0.0-10.0","2d_cat_multi_stim_exp1","2022-4-4","12:31:42","25","75","3","9","10","40","30","120","11","19","[""White""]","No","Female","2423990","null","","null","","","demo_in","","","","","","","","","","","","","","","","","","","","","","","","","",""
"","","","","","instructions","11","149799","0.0-11.0","2d_cat_multi_stim_exp1","2022-4-4","12:31:42","25","75","3","9","10","40","30","120","11","19","[""White""]","No","Female","2423990","43285","","","","[{""page_index"":0,""viewing_time"":9486},{""page_index"":1,""viewing_time"":23208},{""page_index"":2,""viewing_time"":10591}]","instructions_2","","","","","","","","","","","","","","","","","","","","","","","","","",""
"","","","","","instructions","12","152302","0.0-12.0","2d_cat_multi_stim_exp1","2022-4-4","12:31:42","25","75","3","9","10","40","30","120","11","19","[""White""]","No","Female","2423990","2502","","","","[{""page_index"":0,""viewing_time"":2502}]","Click to begin the first phase of the experiment.","","","","","","","","","","","","","","","","","","","","","","","","","",""
"","","","","","canvas-keyboard-response","13","152813","0.0-13.0-0.0","2d_cat_multi_stim_exp1","2022-4-4","12:31:42","25","75","3","9","10","40","30","120","11","19","[""White""]","No","Female","2423990","null","","null","","","fixation","","","","","","","","","","","","","","","","","","","","","","","","","",""
"","","","","","canvas-keyboard-response","14","153323","0.0-13.0-1.0","2d_cat_multi_stim_exp1","2022-4-4","12:31:42","25","75","3","9","10","40","30","120","11","19","[""White""]","No","Female","2423990","null","","null","","","clear_screen","","","","","","","","","","","","","","","","","","","","","","","","","",""
"","","","","","canvas-keyboard-response","15","160229","0.0-13.0-2.0","2d_cat_multi_stim_exp1","2022-4-4","12:31:42","25","75","3","9","10","40","30","120","11","19","[""White""]","No","Female","2423990","6893","","u","learn","","learn_trial","23.3333","40","out","1","0","","","","","","","","","","","","","","","","","","","","",""
"","","","","","canvas-keyboard-response","16","161242","0.0-13.0-3.0","2d_cat_multi_stim_exp1","2022-4-4","12:31:42","25","75","3","9","10","40","30","120","11","19","[""White""]","No","Female","2423990","null","","null","learn_feedback","","learn_feedback","23.3333","40","out","","","","","","","","","","","","","","","","","","","","","","",""
"","","","","","canvas-keyboard-response","17","161302","0.0-13.0-4.0","2d_cat_multi_stim_exp1","2022-4-4","12:31:42","25","75","3","9","10","40","30","120","11","19","[""White""]","No","Female","2423990","null","","null","","","clear_screen","","","","","","","","","","","","","","","","","","","","","","","","","",""
"","","","","","canvas-keyboard-response","18","161814","0.0-13.0-0.1","2d_cat_multi_stim_exp1","2022-4-4","12:31:42","25","75","3","9","10","40","30","120","11","19","[""White""]","No","Female","2423990","null","","null","","","fixation","","","","","","","","","","","","","","","","","","","","","","","","","",""
"","","","","","canvas-keyboard-response","19","162324","0.0-13.0-1.1","2d_cat_multi_stim_exp1","2022-4-4","12:31:42","25","75","3","9","10","40","30","120","11","19","[""White""]","No","Female","2423990","null","","null","","","clear_screen","","","","","","","","","","","","","","","","","","","","","","","","","",""
"","","","","","canvas-keyboard-response","20","165204","0.0-13.0-2.1","2d_cat_multi_stim_exp1","2022-4-4","12:31:42","25","75","3","9","10","40","30","120","11","19","[""White""]","No","Female","2423990","2869","","u","learn","","learn_trial","25","75","in","1","1","","","","","","","","","","","","","","","","","","","","",""
"","","","","","canvas-keyboard-response","21","165715","0.0-13.0-3.1","2d_cat_multi_stim_exp1","2022-4-4","12:31:42","25","75","3","9","10","40","30","120","11","19","[""White""]","No","Female","2423990","null","","null","learn_feedback","","learn_feedback","25","75","in","","","","","","","","","","","","","","","","","","","","","","",""
"","","","","","canvas-keyboard-response","22","165776","0.0-13.0-4.1","2d_cat_multi_stim_exp1","2022-4-4","12:31:42","25","75","3","9","10","40","30","120","11","19","[""White""]","No","Female","2423990","null","","null","","","clear_screen","","","","","","","","","","","","","","","","","","","","","","","","","",""
"","","","","","canvas-keyboard-response","23","166285","0.0-13.0-0.2","2d_cat_multi_stim_exp1","2022-4-4","12:31:42","25","75","3","9","10","40","30","120","11","19","[""White""]","No","Female","2423990","null","","null","","","fixation","","","","","","","","","","","","","","","","","","","","","","","","","",""
"","","","","","canvas-keyboard-response","24","166794","0.0-13.0-1.2","2d_cat_multi_stim_exp1","2022-4-4","12:31:42","25","75","3","9","10","40","30","120","11","19","[""White""]","No","Female","2423990","null","","null","","","clear_screen","","","","","","","","","","","","","","","","","","","","","","","","","",""
"","","","","","canvas-keyboard-response","25","169388","0.0-13.0-2.2","2d_cat_multi_stim_exp1","2022-4-4","12:31:42","25","75","3","9","10","40","30","120","11","19","[""White""]","No","Female","2423990","2584","","i","learn","","learn_trial","16.6667","120","out","0","1","","","","","","","","","","","","","","","","","","","","",""
"","","","","","canvas-keyboard-response","26","169899","0.0-13.0-3.2","2d_cat_multi_stim_exp1","2022-4-4","12:31:42","25","75","3","9","10","40","30","120","11","19","[""White""]","No","Female","2423990","null","","null","learn_feedback","","learn_feedback","16.6667","120","out","","","","","","","","","","","","","","","","","","","","","","",""
"","","","","","canvas-keyboard-response","27","169959","0.0-13.0-4.2","2d_cat_multi_stim_exp1","2022-4-4","12:31:42","25","75","3","9","10","40","30","120","11","19","[""White""]","No","Female","2423990","null","","null","","","clear_screen","","","","","","","","","","","","","","","","","","","","","","","","","",""
"","","","","","canvas-keyboard-response","28","170469","0.0-13.0-0.3","2d_cat_multi_stim_exp1","2022-4-4","12:31:42","25","75","3","9","10","40","30","120","11","19","[""White""]","No","Female","2423990","null","","null","","","fixation","","","","","","","","","","","","","","","","","","","","","","","","","",""
"","","","","","canvas-keyboard-response","29","170979","0.0-13.0-1.3","2d_cat_multi_stim_exp1","2022-4-4","12:31:42","25","75","3","9","10","40","30","120","11","19","[""White""]","No","Female","2423990","null","","null","","","clear_screen","","","","","","","","","","","","","","","","","","","","","","","","","",""
"","","","","","canvas-keyboard-response","30","173571","0.0-13.0-2.3","2d_cat_multi_stim_exp1","2022-4-4","12:31:42","25","75","3","9","10","40","30","120","11","19","[""White""]","No","Female","2423990","2583","","i","learn","","learn_trial","16.6667","100","out","0","1","","","","","","","","","","","","","","","","","","","","",""
"","","","","","canvas-keyboard-response","31","174083","0.0-13.0-3.3","2d_cat_multi_stim_exp1","2022-4-4","12:31:42","25","75","3","9","10","40","30","120","11","19","[""White""]","No","Female","2423990","null","","null","learn_feedback","","learn_feedback","16.6667","100","out","","","","","","","","","","","","","","","","","","","","","","",""
"","","","","","canvas-keyboard-response","32","174142","0.0-13.0-4.3","2d_cat_multi_stim_exp1","2022-4-4","12:31:42","25","75","3","9","10","40","30","120","11","19","[""White""]","No","Female","2423990","null","","null","","","clear_screen","","","","","","","","","","","","","","","","","","","","","","","","","",""
"","","","","","canvas-keyboard-response","33","174651","0.0-13.0-0.4","2d_cat_multi_stim_exp1","2022-4-4","12:31:42","25","75","3","9","10","40","30","120","11","19","[""White""]","No","Female","2423990","null","","null","","","fixation","","","","","","","","","","","","","","","","","","","","","","","","","",""
"","","","","","canvas-keyboard-response","34","175161","0.0-13.0-1.4","2d_cat_multi_stim_exp1","2022-4-4","12:31:42","25","75","3","9","10","40","30","120","11","19","[""White""]","No","Female","2423990","null","","null","","","clear_screen","","","","","","","","","","","","","","","","","","","","","","","","","",""
"","","","","","canvas-keyboard-response","35","179237","0.0-13.0-2.4","2d_cat_multi_stim_exp1","2022-4-4","12:31:42","25","75","3","9","10","40","30","120","11","19","[""White""]","No","Female","2423990","4067","","u","learn","","learn_trial","13.3333","60","out","1","0","","","","","","","","","","","","","","","","","","","","",""
"","","","","","canvas-keyboard-response","36","180247","0.0-13.0-3.4","2d_cat_multi_stim_exp1","2022-4-4","12:31:42","25","75","3","9","10","40","30","120","11","19","[""White""]","No","Female","2423990","null","","null","learn_feedback","","learn_feedback","13.3333","60","out","","","","","","","","","","","","","","","","","","","","","","",""
"","","","","","canvas-keyboard-response","37","180306","0.0-13.0-4.4","2d_cat_multi_stim_exp1","2022-4-4","12:31:42","25","75","3","9","10","40","30","120","11","19","[""White""]","No","Female","2423990","null","","null","","","clear_screen","","","","","","","","","","","","","","","","","","","","","","","","","",""
"","","","","","canvas-keyboard-response","38","180815","0.0-13.0-0.5","2d_cat_multi_stim_exp1","2022-4-4","12:31:42","25","75","3","9","10","40","30","120","11","19","[""White""]","No","Female","2423990","null","","null","","","fixation","","","","","","","","","","","","","","","","","","","","","","","","","",""
"","","","","","canvas-keyboard-response","39","181324","0.0-13.0-1.5","2d_cat_multi_stim_exp1","2022-4-4","12:31:42","25","75","3","9","10","40","30","120","11","19","[""White""]","No","Female","2423990","null","","null","","","clear_screen","","","","","","","","","","","","","","","","","","","","","","","","","",""
"","","","","","canvas-keyboard-response","40","184661","0.0-13.0-2.5","2d_cat_multi_stim_exp1","2022-4-4","12:31:42","25","75","3","9","10","40","30","120","11","19","[""White""]","No","Female","2423990","3328","","i","learn","","learn_trial","36.6667","50","out","0","1","","","","","","","","","","","","","","","","","","","","",""
"","","","","","canvas-keyboard-response","41","185170","0.0-13.0-3.5","2d_cat_multi_stim_exp1","2022-4-4","12:31:42","25","75","3","9","10","40","30","120","11","19","[""White""]","No","Female","2423990","null","","null","learn_feedback","","learn_feedback","36.6667","50","out","","","","","","","","","","","","","","","","","","","","","","",""
"","","","","","canvas-keyboard-response","42","185229","0.0-13.0-4.5","2d_cat_multi_stim_exp1","2022-4-4","12:31:42","25","75","3","9","10","40","30","120","11","19","[""White""]","No","Female","2423990","null","","null","","","clear_screen","","","","","","","","","","","","","","","","","","","","","","","","","",""
"","","","","","canvas-keyboard-response","43","185738","0.0-13.0-0.6","2d_cat_multi_stim_exp1","2022-4-4","12:31:42","25","75","3","9","10","40","30","120","11","19","[""White""]","No","Female","2423990","null","","null","","","fixation","","","","","","","","","","","","","","","","","","","","","","","","","",""
"","","","","","canvas-keyboard-response","44","186248","0.0-13.0-1.6","2d_cat_multi_stim_exp1","2022-4-4","12:31:42","25","75","3","9","10","40","30","120","11","19","[""White""]","No","Female","2423990","null","","null","","","clear_screen","","","","","","","","","","","","","","","","","","","","","","","","","",""
"","","","","","canvas-keyboard-response","45","187980","0.0-13.0-2.6","2d_cat_multi_stim_exp1","2022-4-4","12:31:42","25","75","3","9","10","40","30","120","11","19","[""White""]","No","Female","2423990","1723","","u","learn","","learn_trial","26.6667","80","out","1","0","","","","","","","","","","","","","","","","","","","","",""
"","","","","","canvas-keyboard-response","46","188989","0.0-13.0-3.6","2d_cat_multi_stim_exp1","2022-4-4","12:31:42","25","75","3","9","10","40","30","120","11","19","[""White""]","No","Female","2423990","null","","null","learn_feedback","","learn_feedback","26.6667","80","out","","","","","","","","","","","","","","","","","","","","","","",""
"","","","","","canvas-keyboard-response","47","189049","0.0-13.0-4.6","2d_cat_multi_stim_exp1","2022-4-4","12:31:42","25","75","3","9","10","40","30","120","11","19","[""White""]","No","Female","2423990","null","","null","","","clear_screen","","","","","","","","","","","","","","","","","","","","","","","","","",""
"","","","","","canvas-keyboard-response","48","189558","0.0-13.0-0.7","2d_cat_multi_stim_exp1","2022-4-4","12:31:42","25","75","3","9","10","40","30","120","11","19","[""White""]","No","Female","2423990","null","","null","","","fixation","","","","","","","","","","","","","","","","","","","","","","","","","",""
"","","","","","canvas-keyboard-response","49","190067","0.0-13.0-1.7","2d_cat_multi_stim_exp1","2022-4-4","12:31:42","25","75","3","9","10","40","30","120","11","19","[""White""]","No","Female","2423990","null","","null","","","clear_screen","","","","","","","","","","","","","","","","","","","","","","","","","",""
"","","","","","canvas-keyboard-response","50","192611","0.0-13.0-2.7","2d_cat_multi_stim_exp1","2022-4-4","12:31:42","25","75","3","9","10","40","30","120","11","19","[""White""]","No","Female","2423990","2535","","u","learn","","learn_trial","25","75","in","1","1","","","","","","","","","","","","","","","","","","","","",""
"","","","","","canvas-keyboard-response","51","193122","0.0-13.0-3.7","2d_cat_multi_stim_exp1","2022-4-4","12:31:42","25","75","3","9","10","40","30","120","11","19","[""White""]","No","Female","2423990","null","","null","learn_feedback","","learn_feedback","25","75","in","","","","","","","","","","","","","","","","","","","","","","",""
"","","","","","canvas-keyboard-response","52","193181","0.0-13.0-4.7","2d_cat_multi_stim_exp1","2022-4-4","12:31:42","25","75","3","9","10","40","30","120","11","19","[""White""]","No","Female","2423990","null","","null","","","clear_screen","","","","","","","","","","","","","","","","","","","","","","","","","",""
"","","","","","canvas-keyboard-response","53","193690","0.0-13.0-0.8","2d_cat_multi_stim_exp1","2022-4-4","12:31:42","25","75","3","9","10","40","30","120","11","19","[""White""]","No","Female","2423990","null","","null","","","fixation","","","","","","","","","","","","","","","","","","","","","","","","","",""
"","","","","","canvas-keyboard-response","54","194200","0.0-13.0-1.8","2d_cat_multi_stim_exp1","2022-4-4","12:31:42","25","75","3","9","10","40","30","120","11","19","[""White""]","No","Female","2423990","null","","null","","","clear_screen","","","","","","","","","","","","","","","","","","","","","","","","","",""
"","","","","","canvas-keyboard-response","55","200572","0.0-13.0-2.8","2d_cat_multi_stim_exp1","2022-4-4","12:31:42","25","75","3","9","10","40","30","120","11","19","[""White""]","No","Female","2423990","6361","","u","learn","","learn_trial","22.0121","74.1932","in","1","1","","","","","","","","","","","","","","","","","","","","",""
"","","","","","canvas-keyboard-response","56","201082","0.0-13.0-3.8","2d_cat_multi_stim_exp1","2022-4-4","12:31:42","25","75","3","9","10","40","30","120","11","19","[""White""]","No","Female","2423990","null","","null","learn_feedback","","learn_feedback","22.0121","74.1932","in","","","","","","","","","","","","","","","","","","","","","","",""
"","","","","","canvas-keyboard-response","57","201140","0.0-13.0-4.8","2d_cat_multi_stim_exp1","2022-4-4","12:31:42","25","75","3","9","10","40","30","120","11","19","[""White""]","No","Female","2423990","null","","null","","","clear_screen","","","","","","","","","","","","","","","","","","","","","","","","","",""
"","","","","","canvas-keyboard-response","58","201650","0.0-13.0-0.9","2d_cat_multi_stim_exp1","2022-4-4","12:31:42","25","75","3","9","10","40","30","120","11","19","[""White""]","No","Female","2423990","null","","null","","","fixation","","","","","","","","","","","","","","","","","","","","","","","","","",""
"","","","","","canvas-keyboard-response","59","202158","0.0-13.0-1.9","2d_cat_multi_stim_exp1","2022-4-4","12:31:42","25","75","3","9","10","40","30","120","11","19","[""White""]","No","Female","2423990","null","","null","","","clear_screen","","","","","","","","","","","","","","","","","","","","","","","","","",""
"","","","","","canvas-keyboard-response","60","204244","0.0-13.0-2.9","2d_cat_multi_stim_exp1","2022-4-4","12:31:42","25","75","3","9","10","40","30","120","11","19","[""White""]","No","Female","2423990","2077","","u","learn","","learn_trial","30","100","out","1","0","","","","","","","","","","","","","","","","","","","","",""
"","","","","","canvas-keyboard-response","61","205254","0.0-13.0-3.9","2d_cat_multi_stim_exp1","2022-4-4","12:31:42","25","75","3","9","10","40","30","120","11","19","[""White""]","No","Female","2423990","null","","null","learn_feedback","","learn_feedback","30","100","out","","","","","","","","","","","","","","","","","","","","","","",""
"","","","","","canvas-keyboard-response","62","205313","0.0-13.0-4.9","2d_cat_multi_stim_exp1","2022-4-4","12:31:42","25","75","3","9","10","40","30","120","11","19","[""White""]","No","Female","2423990","null","","null","","","clear_screen","","","","","","","","","","","","","","","","","","","","","","","","","",""
"","","","","","canvas-keyboard-response","63","205822","0.0-13.0-0.10","2d_cat_multi_stim_exp1","2022-4-4","12:31:42","25","75","3","9","10","40","30","120","11","19","[""White""]","No","Female","2423990","null","","null","","","fixation","","","","","","","","","","","","","","","","","","","","","","","","","",""
"","","","","","canvas-keyboard-response","64","206334","0.0-13.0-1.10","2d_cat_multi_stim_exp1","2022-4-4","12:31:42","25","75","3","9","10","40","30","120","11","19","[""White""]","No","Female","2423990","null","","null","","","clear_screen","","","","","","","","","","","","","","","","","","","","","","","","","",""
"","","","","","canvas-keyboard-response","65","208100","0.0-13.0-2.10","2d_cat_multi_stim_exp1","2022-4-4","12:31:42","25","75","3","9","10","40","30","120","11","19","[""White""]","No","Female","2423990","1757","","u","learn","","learn_trial","29.2426","87.7279","in","1","1","","","","","","","","","","","","","","","","","","","","",""
"","","","","","canvas-keyboard-response","66","208610","0.0-13.0-3.10","2d_cat_multi_stim_exp1","2022-4-4","12:31:42","25","75","3","9","10","40","30","120","11","19","[""White""]","No","Female","2423990","null","","null","learn_feedback","","learn_feedback","29.2426","87.7279","in","","","","","","","","","","","","","","","","","","","","","","",""
"","","","","","canvas-keyboard-response","67","208669","0.0-13.0-4.10","2d_cat_multi_stim_exp1","2022-4-4","12:31:42","25","75","3","9","10","40","30","120","11","19","[""White""]","No","Female","2423990","null","","null","","","clear_screen","","","","","","","","","","","","","","","","","","","","","","","","","",""
"","","","","","canvas-keyboard-response","68","209177","0.0-13.0-0.11","2d_cat_multi_stim_exp1","2022-4-4","12:31:42","25","75","3","9","10","40","30","120","11","19","[""White""]","No","Female","2423990","null","","null","","","fixation","","","","","","","","","","","","","","","","","","","","","","","","","",""
"","","","","","canvas-keyboard-response","69","209687","0.0-13.0-1.11","2d_cat_multi_stim_exp1","2022-4-4","12:31:42","25","75","3","9","10","40","30","120","11","19","[""White""]","No","Female","2423990","null","","null","","","clear_screen","","","","","","","","","","","","","","","","","","","","","","","","","",""
"","","","","","canvas-keyboard-response","70","210947","0.0-13.0-2.11","2d_cat_multi_stim_exp1","2022-4-4","12:31:42","25","75","3","9","10","40","30","120","11","19","[""White""]","No","Female","2423990","1252","","i","learn","","learn_trial","27.2592","69.0786","in","0","0","","","","","","","","","","","","","","","","","","","","",""
"","","","","","canvas-keyboard-response","71","211958","0.0-13.0-3.11","2d_cat_multi_stim_exp1","2022-4-4","12:31:42","25","75","3","9","10","40","30","120","11","19","[""White""]","No","Female","2423990","null","","null","learn_feedback","","learn_feedback","27.2592","69.0786","in","","","","","","","","","","","","","","","","","","","","","","",""
"","","","","","canvas-keyboard-response","72","212017","0.0-13.0-4.11","2d_cat_multi_stim_exp1","2022-4-4","12:31:42","25","75","3","9","10","40","30","120","11","19","[""White""]","No","Female","2423990","null","","null","","","clear_screen","","","","","","","","","","","","","","","","","","","","","","","","","",""
"","","","","","canvas-keyboard-response","73","212526","0.0-13.0-0.12","2d_cat_multi_stim_exp1","2022-4-4","12:31:42","25","75","3","9","10","40","30","120","11","19","[""White""]","No","Female","2423990","null","","null","","","fixation","","","","","","","","","","","","","","","","","","","","","","","","","",""
"","","","","","canvas-keyboard-response","74","213036","0.0-13.0-1.12","2d_cat_multi_stim_exp1","2022-4-4","12:31:42","25","75","3","9","10","40","30","120","11","19","[""White""]","No","Female","2423990","null","","null","","","clear_screen","","","","","","","","","","","","","","","","","","","","","","","","","",""
"","","","","","canvas-keyboard-response","75","214068","0.0-13.0-2.12","2d_cat_multi_stim_exp1","2022-4-4","12:31:42","25","75","3","9","10","40","30","120","11","19","[""White""]","No","Female","2423990","1023","","u","learn","","learn_trial","27.9518","76.607","in","1","1","","","","","","","","","","","","","","","","","","","","",""
"","","","","","canvas-keyboard-response","76","214578","0.0-13.0-3.12","2d_cat_multi_stim_exp1","2022-4-4","12:31:42","25","75","3","9","10","40","30","120","11","19","[""White""]","No","Female","2423990","null","","null","learn_feedback","","learn_feedback","27.9518","76.607","in","","","","","","","","","","","","","","","","","","","","","","",""
"","","","","","canvas-keyboard-response","77","214637","0.0-13.0-4.12","2d_cat_multi_stim_exp1","2022-4-4","12:31:42","25","75","3","9","10","40","30","120","11","19","[""White""]","No","Female","2423990","null","","null","","","clear_screen","","","","","","","","","","","","","","","","","","","","","","","","","",""
"","","","","","canvas-keyboard-response","78","215146","0.0-13.0-0.13","2d_cat_multi_stim_exp1","2022-4-4","12:31:42","25","75","3","9","10","40","30","120","11","19","[""White""]","No","Female","2423990","null","","null","","","fixation","","","","","","","","","","","","","","","","","","","","","","","","","",""
"","","","","","canvas-keyboard-response","79","215655","0.0-13.0-1.13","2d_cat_multi_stim_exp1","2022-4-4","12:31:42","25","75","3","9","10","40","30","120","11","19","[""White""]","No","Female","2423990","null","","null","","","clear_screen","","","","","","","","","","","","","","","","","","","","","","","","","",""
"","","","","","canvas-keyboard-response","80","216821","0.0-13.0-2.13","2d_cat_multi_stim_exp1","2022-4-4","12:31:42","25","75","3","9","10","40","30","120","11","19","[""White""]","No","Female","2423990","1155","","i","learn","","learn_trial","10","80","out","0","1","","","","","","","","","","","","","","","","","","","","",""
"","","","","","canvas-keyboard-response","81","217334","0.0-13.0-3.13","2d_cat_multi_stim_exp1","2022-4-4","12:31:42","25","75","3","9","10","40","30","120","11","19","[""White""]","No","Female","2423990","null","","null","learn_feedback","","learn_feedback","10","80","out","","","","","","","","","","","","","","","","","","","","","","",""
"","","","","","canvas-keyboard-response","82","217395","0.0-13.0-4.13","2d_cat_multi_stim_exp1","2022-4-4","12:31:42","25","75","3","9","10","40","30","120","11","19","[""White""]","No","Female","2423990","null","","null","","","clear_screen","","","","","","","","","","","","","","","","","","","","","","","","","",""
"","","","","","canvas-keyboard-response","83","217906","0.0-13.0-0.14","2d_cat_multi_stim_exp1","2022-4-4","12:31:42","25","75","3","9","10","40","30","120","11","19","[""White""]","No","Female","2423990","null","","null","","","fixation","","","","","","","","","","","","","","","","","","","","","","","","","",""
"","","","","","canvas-keyboard-response","84","218416","0.0-13.0-1.14","2d_cat_multi_stim_exp1","2022-4-4","12:31:42","25","75","3","9","10","40","30","120","11","19","[""White""]","No","Female","2423990","null","","null","","","clear_screen","","","","","","","","","","","","","","","","","","","","","","","","","",""
"","","","","","canvas-keyboard-response","85","220124","0.0-13.0-2.14","2d_cat_multi_stim_exp1","2022-4-4","12:31:42","25","75","3","9","10","40","30","120","11","19","[""White""]","No","Female","2423990","1697","","i","learn","","learn_trial","40","70","out","0","1","","","","","","","","","","","","","","","","","","","","",""
"","","","","","canvas-keyboard-response","86","220634","0.0-13.0-3.14","2d_cat_multi_stim_exp1","2022-4-4","12:31:42","25","75","3","9","10","40","30","120","11","19","[""White""]","No","Female","2423990","null","","null","learn_feedback","","learn_feedback","40","70","out","","","","","","","","","","","","","","","","","","","","","","",""
"","","","","","canvas-keyboard-response","87","220694","0.0-13.0-4.14","2d_cat_multi_stim_exp1","2022-4-4","12:31:42","25","75","3","9","10","40","30","120","11","19","[""White""]","No","Female","2423990","null","","null","","","clear_screen","","","","","","","","","","","","","","","","","","","","","","","","","",""
"","","","","","canvas-keyboard-response","88","221205","0.0-13.0-0.15","2d_cat_multi_stim_exp1","2022-4-4","12:31:42","25","75","3","9","10","40","30","120","11","19","[""White""]","No","Female","2423990","null","","null","","","fixation","","","","","","","","","","","","","","","","","","","","","","","","","",""
"","","","","","canvas-keyboard-response","89","221716","0.0-13.0-1.15","2d_cat_multi_stim_exp1","2022-4-4","12:31:42","25","75","3","9","10","40","30","120","11","19","[""White""]","No","Female","2423990","null","","null","","","clear_screen","","","","","","","","","","","","","","","","","","","","","","","","","",""
"","","","","","canvas-keyboard-response","90","222741","0.0-13.0-2.15","2d_cat_multi_stim_exp1","2022-4-4","12:31:42","25","75","3","9","10","40","30","120","11","19","[""White""]","No","Female","2423990","1016","","i","learn","","learn_trial","30","30","out","0","1","","","","","","","","","","","","","","","","","","","","",""
"","","","","","canvas-keyboard-response","91","223251","0.0-13.0-3.15","2d_cat_multi_stim_exp1","2022-4-4","12:31:42","25","75","3","9","10","40","30","120","11","19","[""White""]","No","Female","2423990","null","","null","learn_feedback","","learn_feedback","30","30","out","","","","","","","","","","","","","","","","","","","","","","",""
"","","","","","canvas-keyboard-response","92","223311","0.0-13.0-4.15","2d_cat_multi_stim_exp1","2022-4-4","12:31:42","25","75","3","9","10","40","30","120","11","19","[""White""]","No","Female","2423990","null","","null","","","clear_screen","","","","","","","","","","","","","","","","","","","","","","","","","",""
"","","","","","canvas-keyboard-response","93","223824","0.0-13.0-0.16","2d_cat_multi_stim_exp1","2022-4-4","12:31:42","25","75","3","9","10","40","30","120","11","19","[""White""]","No","Female","2423990","null","","null","","","fixation","","","","","","","","","","","","","","","","","","","","","","","","","",""
"","","","","","canvas-keyboard-response","94","224334","0.0-13.0-1.16","2d_cat_multi_stim_exp1","2022-4-4","12:31:42","25","75","3","9","10","40","30","120","11","19","[""White""]","No","Female","2423990","null","","null","","","clear_screen","","","","","","","","","","","","","","","","","","","","","","","","","",""
"","","","","","canvas-keyboard-response","95","225156","0.0-13.0-2.16","2d_cat_multi_stim_exp1","2022-4-4","12:31:42","25","75","3","9","10","40","30","120","11","19","[""White""]","No","Female","2423990","813","","u","learn","","learn_trial","30","60","out","1","0","","","","","","","","","","","","","","","","","","","","",""
"","","","","","canvas-keyboard-response","96","226167","0.0-13.0-3.16","2d_cat_multi_stim_exp1","2022-4-4","12:31:42","25","75","3","9","10","40","30","120","11","19","[""White""]","No","Female","2423990","null","","null","learn_feedback","","learn_feedback","30","60","out","","","","","","","","","","","","","","","","","","","","","","",""
"","","","","","canvas-keyboard-response","97","226226","0.0-13.0-4.16","2d_cat_multi_stim_exp1","2022-4-4","12:31:42","25","75","3","9","10","40","30","120","11","19","[""White""]","No","Female","2423990","null","","null","","","clear_screen","","","","","","","","","","","","","","","","","","","","","","","","","",""
"","","","","","canvas-keyboard-response","98","226734","0.0-13.0-0.17","2d_cat_multi_stim_exp1","2022-4-4","12:31:42","25","75","3","9","10","40","30","120","11","19","[""White""]","No","Female","2423990","null","","null","","","fixation","","","","","","","","","","","","","","","","","","","","","","","","","",""
"","","","","","canvas-keyboard-response","99","227244","0.0-13.0-1.17","2d_cat_multi_stim_exp1","2022-4-4","12:31:42","25","75","3","9","10","40","30","120","11","19","[""White""]","No","Female","2423990","null","","null","","","clear_screen","","","","","","","","","","","","","","","","","","","","","","","","","",""
"","","","","","canvas-keyboard-response","100","228340","0.0-13.0-2.17","2d_cat_multi_stim_exp1","2022-4-4","12:31:42","25","75","3","9","10","40","30","120","11","19","[""White""]","No","Female","2423990","1086","","i","learn","","learn_trial","36.6667","30","out","0","1","","","","","","","","","","","","","","","","","","","","",""
"","","","","","canvas-keyboard-response","101","228850","0.0-13.0-3.17","2d_cat_multi_stim_exp1","2022-4-4","12:31:42","25","75","3","9","10","40","30","120","11","19","[""White""]","No","Female","2423990","null","","null","learn_feedback","","learn_feedback","36.6667","30","out","","","","","","","","","","","","","","","","","","","","","","",""
"","","","","","canvas-keyboard-response","102","228908","0.0-13.0-4.17","2d_cat_multi_stim_exp1","2022-4-4","12:31:42","25","75","3","9","10","40","30","120","11","19","[""White""]","No","Female","2423990","null","","null","","","clear_screen","","","","","","","","","","","","","","","","","","","","","","","","","",""
"","","","","","canvas-keyboard-response","103","229418","0.0-13.0-0.18","2d_cat_multi_stim_exp1","2022-4-4","12:31:42","25","75","3","9","10","40","30","120","11","19","[""White""]","No","Female","2423990","null","","null","","","fixation","","","","","","","","","","","","","","","","","","","","","","","","","",""
"","","","","","canvas-keyboard-response","104","229927","0.0-13.0-1.18","2d_cat_multi_stim_exp1","2022-4-4","12:31:42","25","75","3","9","10","40","30","120","11","19","[""White""]","No","Female","2423990","null","","null","","","clear_screen","","","","","","","","","","","","","","","","","","","","","","","","","",""
"","","","","","canvas-keyboard-response","105","230908","0.0-13.0-2.18","2d_cat_multi_stim_exp1","2022-4-4","12:31:42","25","75","3","9","10","40","30","120","11","19","[""White""]","No","Female","2423990","972","","u","learn","","learn_trial","25","75","in","1","1","","","","","","","","","","","","","","","","","","","","",""
"","","","","","canvas-keyboard-response","106","231418","0.0-13.0-3.18","2d_cat_multi_stim_exp1","2022-4-4","12:31:42","25","75","3","9","10","40","30","120","11","19","[""White""]","No","Female","2423990","null","","null","learn_feedback","","learn_feedback","25","75","in","","","","","","","","","","","","","","","","","","","","","","",""
"","","","","","canvas-keyboard-response","107","231477","0.0-13.0-4.18","2d_cat_multi_stim_exp1","2022-4-4","12:31:42","25","75","3","9","10","40","30","120","11","19","[""White""]","No","Female","2423990","null","","null","","","clear_screen","","","","","","","","","","","","","","","","","","","","","","","","","",""
"","","","","","canvas-keyboard-response","108","231986","0.0-13.0-0.19","2d_cat_multi_stim_exp1","2022-4-4","12:31:42","25","75","3","9","10","40","30","120","11","19","[""White""]","No","Female","2423990","null","","null","","","fixation","","","","","","","","","","","","","","","","","","","","","","","","","",""
"","","","","","canvas-keyboard-response","109","232495","0.0-13.0-1.19","2d_cat_multi_stim_exp1","2022-4-4","12:31:42","25","75","3","9","10","40","30","120","11","19","[""White""]","No","Female","2423990","null","","null","","","clear_screen","","","","","","","","","","","","","","","","","","","","","","","","","",""
"","","","","","canvas-keyboard-response","110","235428","0.0-13.0-2.19","2d_cat_multi_stim_exp1","2022-4-4","12:31:42","25","75","3","9","10","40","30","120","11","19","[""White""]","No","Female","2423990","2923","","u","learn","","learn_trial","25","75","in","1","1","","","","","","","","","","","","","","","","","","","","",""
"","","","","","canvas-keyboard-response","111","235938","0.0-13.0-3.19","2d_cat_multi_stim_exp1","2022-4-4","12:31:42","25","75","3","9","10","40","30","120","11","19","[""White""]","No","Female","2423990","null","","null","learn_feedback","","learn_feedback","25","75","in","","","","","","","","","","","","","","","","","","","","","","",""
"","","","","","canvas-keyboard-response","112","235997","0.0-13.0-4.19","2d_cat_multi_stim_exp1","2022-4-4","12:31:42","25","75","3","9","10","40","30","120","11","19","[""White""]","No","Female","2423990","null","","null","","","clear_screen","","","","","","","","","","","","","","","","","","","","","","","","","",""
"","","","","","canvas-keyboard-response","113","236506","0.0-13.0-0.20","2d_cat_multi_stim_exp1","2022-4-4","12:31:42","25","75","3","9","10","40","30","120","11","19","[""White""]","No","Female","2423990","null","","null","","","fixation","","","","","","","","","","","","","","","","","","","","","","","","","",""
"","","","","","canvas-keyboard-response","114","237016","0.0-13.0-1.20","2d_cat_multi_stim_exp1","2022-4-4","12:31:42","25","75","3","9","10","40","30","120","11","19","[""White""]","No","Female","2423990","null","","null","","","clear_screen","","","","","","","","","","","","","","","","","","","","","","","","","",""
"","","","","","canvas-keyboard-response","115","238884","0.0-13.0-2.20","2d_cat_multi_stim_exp1","2022-4-4","12:31:42","25","75","3","9","10","40","30","120","11","19","[""White""]","No","Female","2423990","1858","","u","learn","","learn_trial","30","70","out","1","0","","","","","","","","","","","","","","","","","","","","",""
"","","","","","canvas-keyboard-response","116","239894","0.0-13.0-3.20","2d_cat_multi_stim_exp1","2022-4-4","12:31:42","25","75","3","9","10","40","30","120","11","19","[""White""]","No","Female","2423990","null","","null","learn_feedback","","learn_feedback","30","70","out","","","","","","","","","","","","","","","","","","","","","","",""
"","","","","","canvas-keyboard-response","117","239953","0.0-13.0-4.20","2d_cat_multi_stim_exp1","2022-4-4","12:31:42","25","75","3","9","10","40","30","120","11","19","[""White""]","No","Female","2423990","null","","null","","","clear_screen","","","","","","","","","","","","","","","","","","","","","","","","","",""
"","","","","","canvas-keyboard-response","118","240461","0.0-13.0-0.21","2d_cat_multi_stim_exp1","2022-4-4","12:31:42","25","75","3","9","10","40","30","120","11","19","[""White""]","No","Female","2423990","null","","null","","","fixation","","","","","","","","","","","","","","","","","","","","","","","","","",""
"","","","","","canvas-keyboard-response","119","240971","0.0-13.0-1.21","2d_cat_multi_stim_exp1","2022-4-4","12:31:42","25","75","3","9","10","40","30","120","11","19","[""White""]","No","Female","2423990","null","","null","","","clear_screen","","","","","","","","","","","","","","","","","","","","","","","","","",""
"","","","","","canvas-keyboard-response","120","243371","0.0-13.0-2.21","2d_cat_multi_stim_exp1","2022-4-4","12:31:42","25","75","3","9","10","40","30","120","11","19","[""White""]","No","Female","2423990","2390","","i","learn","","learn_trial","40","110","out","0","1","","","","","","","","","","","","","","","","","","","","",""
"","","","","","canvas-keyboard-response","121","243882","0.0-13.0-3.21","2d_cat_multi_stim_exp1","2022-4-4","12:31:42","25","75","3","9","10","40","30","120","11","19","[""White""]","No","Female","2423990","null","","null","learn_feedback","","learn_feedback","40","110","out","","","","","","","","","","","","","","","","","","","","","","",""
"","","","","","canvas-keyboard-response","122","243940","0.0-13.0-4.21","2d_cat_multi_stim_exp1","2022-4-4","12:31:42","25","75","3","9","10","40","30","120","11","19","[""White""]","No","Female","2423990","null","","null","","","clear_screen","","","","","","","","","","","","","","","","","","","","","","","","","",""
"","","","","","canvas-keyboard-response","123","244449","0.0-13.0-0.22","2d_cat_multi_stim_exp1","2022-4-4","12:31:42","25","75","3","9","10","40","30","120","11","19","[""White""]","No","Female","2423990","null","","null","","","fixation","","","","","","","","","","","","","","","","","","","","","","","","","",""
"","","","","","canvas-keyboard-response","124","244960","0.0-13.0-1.22","2d_cat_multi_stim_exp1","2022-4-4","12:31:42","25","75","3","9","10","40","30","120","11","19","[""White""]","No","Female","2423990","null","","null","","","clear_screen","","","","","","","","","","","","","","","","","","","","","","","","","",""
"","","","","","canvas-keyboard-response","125","248212","0.0-13.0-2.22","2d_cat_multi_stim_exp1","2022-4-4","12:31:42","25","75","3","9","10","40","30","120","11","19","[""White""]","No","Female","2423990","3244","","u","learn","","learn_trial","25","75","in","1","1","","","","","","","","","","","","","","","","","","","","",""
"","","","","","canvas-keyboard-response","126","248722","0.0-13.0-3.22","2d_cat_multi_stim_exp1","2022-4-4","12:31:42","25","75","3","9","10","40","30","120","11","19","[""White""]","No","Female","2423990","null","","null","learn_feedback","","learn_feedback","25","75","in","","","","","","","","","","","","","","","","","","","","","","",""
"","","","","","canvas-keyboard-response","127","248781","0.0-13.0-4.22","2d_cat_multi_stim_exp1","2022-4-4","12:31:42","25","75","3","9","10","40","30","120","11","19","[""White""]","No","Female","2423990","null","","null","","","clear_screen","","","","","","","","","","","","","","","","","","","","","","","","","",""
"","","","","","canvas-keyboard-response","128","249289","0.0-13.0-0.23","2d_cat_multi_stim_exp1","2022-4-4","12:31:42","25","75","3","9","10","40","30","120","11","19","[""White""]","No","Female","2423990","null","","null","","","fixation","","","","","","","","","","","","","","","","","","","","","","","","","",""
"","","","","","canvas-keyboard-response","129","249798","0.0-13.0-1.23","2d_cat_multi_stim_exp1","2022-4-4","12:31:42","25","75","3","9","10","40","30","120","11","19","[""White""]","No","Female","2423990","null","","null","","","clear_screen","","","","","","","","","","","","","","","","","","","","","","","","","",""
"","","","","","canvas-keyboard-response","130","251972","0.0-13.0-2.23","2d_cat_multi_stim_exp1","2022-4-4","12:31:42","25","75","3","9","10","40","30","120","11","19","[""White""]","No","Female","2423990","2163","","u","learn","","learn_trial","25","75","in","1","1","","","","","","","","","","","","","","","","","","","","",""
"","","","","","canvas-keyboard-response","131","252481","0.0-13.0-3.23","2d_cat_multi_stim_exp1","2022-4-4","12:31:42","25","75","3","9","10","40","30","120","11","19","[""White""]","No","Female","2423990","null","","null","learn_feedback","","learn_feedback","25","75","in","","","","","","","","","","","","","","","","","","","","","","",""
"","","","","","canvas-keyboard-response","132","252541","0.0-13.0-4.23","2d_cat_multi_stim_exp1","2022-4-4","12:31:42","25","75","3","9","10","40","30","120","11","19","[""White""]","No","Female","2423990","null","","null","","","clear_screen","","","","","","","","","","","","","","","","","","","","","","","","","",""
"","","","","","canvas-keyboard-response","133","253050","0.0-13.0-0.24","2d_cat_multi_stim_exp1","2022-4-4","12:31:42","25","75","3","9","10","40","30","120","11","19","[""White""]","No","Female","2423990","null","","null","","","fixation","","","","","","","","","","","","","","","","","","","","","","","","","",""
"","","","","","canvas-keyboard-response","134","253559","0.0-13.0-1.24","2d_cat_multi_stim_exp1","2022-4-4","12:31:42","25","75","3","9","10","40","30","120","11","19","[""White""]","No","Female","2423990","null","","null","","","clear_screen","","","","","","","","","","","","","","","","","","","","","","","","","",""
"","","","","","canvas-keyboard-response","135","255643","0.0-13.0-2.24","2d_cat_multi_stim_exp1","2022-4-4","12:31:42","25","75","3","9","10","40","30","120","11","19","[""White""]","No","Female","2423990","2075","","i","learn","","learn_trial","20","70","out","0","1","","","","","","","","","","","","","","","","","","","","",""
"","","","","","canvas-keyboard-response","136","256153","0.0-13.0-3.24","2d_cat_multi_stim_exp1","2022-4-4","12:31:42","25","75","3","9","10","40","30","120","11","19","[""White""]","No","Female","2423990","null","","null","learn_feedback","","learn_feedback","20","70","out","","","","","","","","","","","","","","","","","","","","","","",""
"","","","","","canvas-keyboard-response","137","256213","0.0-13.0-4.24","2d_cat_multi_stim_exp1","2022-4-4","12:31:42","25","75","3","9","10","40","30","120","11","19","[""White""]","No","Female","2423990","null","","null","","","clear_screen","","","","","","","","","","","","","","","","","","","","","","","","","",""
"","","","","","canvas-keyboard-response","138","256721","0.0-13.0-0.25","2d_cat_multi_stim_exp1","2022-4-4","12:31:42","25","75","3","9","10","40","30","120","11","19","[""White""]","No","Female","2423990","null","","null","","","fixation","","","","","","","","","","","","","","","","","","","","","","","","","",""
"","","","","","canvas-keyboard-response","139","257231","0.0-13.0-1.25","2d_cat_multi_stim_exp1","2022-4-4","12:31:42","25","75","3","9","10","40","30","120","11","19","[""White""]","No","Female","2423990","null","","null","","","clear_screen","","","","","","","","","","","","","","","","","","","","","","","","","",""
"","","","","","canvas-keyboard-response","140","258532","0.0-13.0-2.25","2d_cat_multi_stim_exp1","2022-4-4","12:31:42","25","75","3","9","10","40","30","120","11","19","[""White""]","No","Female","2423990","1291","","i","learn","","learn_trial","30","110","out","0","1","","","","","","","","","","","","","","","","","","","","",""
"","","","","","canvas-keyboard-response","141","259045","0.0-13.0-3.25","2d_cat_multi_stim_exp1","2022-4-4","12:31:42","25","75","3","9","10","40","30","120","11","19","[""White""]","No","Female","2423990","null","","null","learn_feedback","","learn_feedback","30","110","out","","","","","","","","","","","","","","","","","","","","","","",""
"","","","","","canvas-keyboard-response","142","259106","0.0-13.0-4.25","2d_cat_multi_stim_exp1","2022-4-4","12:31:42","25","75","3","9","10","40","30","120","11","19","[""White""]","No","Female","2423990","null","","null","","","clear_screen","","","","","","","","","","","","","","","","","","","","","","","","","",""
"","","","","","canvas-keyboard-response","143","259622","0.0-13.0-0.26","2d_cat_multi_stim_exp1","2022-4-4","12:31:42","25","75","3","9","10","40","30","120","11","19","[""White""]","No","Female","2423990","null","","null","","","fixation","","","","","","","","","","","","","","","","","","","","","","","","","",""
"","","","","","canvas-keyboard-response","144","260132","0.0-13.0-1.26","2d_cat_multi_stim_exp1","2022-4-4","12:31:42","25","75","3","9","10","40","30","120","11","19","[""White""]","No","Female","2423990","null","","null","","","clear_screen","","","","","","","","","","","","","","","","","","","","","","","","","",""
"","","","","","canvas-keyboard-response","145","261491","0.0-13.0-2.26","2d_cat_multi_stim_exp1","2022-4-4","12:31:42","25","75","3","9","10","40","30","120","11","19","[""White""]","No","Female","2423990","1350","","u","learn","","learn_trial","24.3324","83.7744","in","1","1","","","","","","","","","","","","","","","","","","","","",""
"","","","","","canvas-keyboard-response","146","262002","0.0-13.0-3.26","2d_cat_multi_stim_exp1","2022-4-4","12:31:42","25","75","3","9","10","40","30","120","11","19","[""White""]","No","Female","2423990","null","","null","learn_feedback","","learn_feedback","24.3324","83.7744","in","","","","","","","","","","","","","","","","","","","","","","",""
"","","","","","canvas-keyboard-response","147","262061","0.0-13.0-4.26","2d_cat_multi_stim_exp1","2022-4-4","12:31:42","25","75","3","9","10","40","30","120","11","19","[""White""]","No","Female","2423990","null","","null","","","clear_screen","","","","","","","","","","","","","","","","","","","","","","","","","",""
"","","","","","canvas-keyboard-response","148","262571","0.0-13.0-0.27","2d_cat_multi_stim_exp1","2022-4-4","12:31:42","25","75","3","9","10","40","30","120","11","19","[""White""]","No","Female","2423990","null","","null","","","fixation","","","","","","","","","","","","","","","","","","","","","","","","","",""
"","","","","","canvas-keyboard-response","149","263081","0.0-13.0-1.27","2d_cat_multi_stim_exp1","2022-4-4","12:31:42","25","75","3","9","10","40","30","120","11","19","[""White""]","No","Female","2423990","null","","null","","","clear_screen","","","","","","","","","","","","","","","","","","","","","","","","","",""
"","","","","","canvas-keyboard-response","150","266580","0.0-13.0-2.27","2d_cat_multi_stim_exp1","2022-4-4","12:31:42","25","75","3","9","10","40","30","120","11","19","[""White""]","No","Female","2423990","3488","","i","learn","","learn_trial","30","80","out","0","1","","","","","","","","","","","","","","","","","","","","",""
"","","","","","canvas-keyboard-response","151","267091","0.0-13.0-3.27","2d_cat_multi_stim_exp1","2022-4-4","12:31:42","25","75","3","9","10","40","30","120","11","19","[""White""]","No","Female","2423990","null","","null","learn_feedback","","learn_feedback","30","80","out","","","","","","","","","","","","","","","","","","","","","","",""
"","","","","","canvas-keyboard-response","152","267151","0.0-13.0-4.27","2d_cat_multi_stim_exp1","2022-4-4","12:31:42","25","75","3","9","10","40","30","120","11","19","[""White""]","No","Female","2423990","null","","null","","","clear_screen","","","","","","","","","","","","","","","","","","","","","","","","","",""
"","","","","","canvas-keyboard-response","153","267660","0.0-13.0-0.28","2d_cat_multi_stim_exp1","2022-4-4","12:31:42","25","75","3","9","10","40","30","120","11","19","[""White""]","No","Female","2423990","null","","null","","","fixation","","","","","","","","","","","","","","","","","","","","","","","","","",""
"","","","","","canvas-keyboard-response","154","268170","0.0-13.0-1.28","2d_cat_multi_stim_exp1","2022-4-4","12:31:42","25","75","3","9","10","40","30","120","11","19","[""White""]","No","Female","2423990","null","","null","","","clear_screen","","","","","","","","","","","","","","","","","","","","","","","","","",""
"","","","","","canvas-keyboard-response","155","269508","0.0-13.0-2.28","2d_cat_multi_stim_exp1","2022-4-4","12:31:42","25","75","3","9","10","40","30","120","11","19","[""White""]","No","Female","2423990","1328","","i","learn","","learn_trial","20.7574","87.7279","in","0","0","","","","","","","","","","","","","","","","","","","","",""
"","","","","","canvas-keyboard-response","156","270520","0.0-13.0-3.28","2d_cat_multi_stim_exp1","2022-4-4","12:31:42","25","75","3","9","10","40","30","120","11","19","[""White""]","No","Female","2423990","null","","null","learn_feedback","","learn_feedback","20.7574","87.7279","in","","","","","","","","","","","","","","","","","","","","","","",""
"","","","","","canvas-keyboard-response","157","270580","0.0-13.0-4.28","2d_cat_multi_stim_exp1","2022-4-4","12:31:42","25","75","3","9","10","40","30","120","11","19","[""White""]","No","Female","2423990","null","","null","","","clear_screen","","","","","","","","","","","","","","","","","","","","","","","","","",""
"","","","","","canvas-keyboard-response","158","271089","0.0-13.0-0.29","2d_cat_multi_stim_exp1","2022-4-4","12:31:42","25","75","3","9","10","40","30","120","11","19","[""White""]","No","Female","2423990","null","","null","","","fixation","","","","","","","","","","","","","","","","","","","","","","","","","",""
"","","","","","canvas-keyboard-response","159","271599","0.0-13.0-1.29","2d_cat_multi_stim_exp1","2022-4-4","12:31:42","25","75","3","9","10","40","30","120","11","19","[""White""]","No","Female","2423990","null","","null","","","clear_screen","","","","","","","","","","","","","","","","","","","","","","","","","",""
"","","","","","canvas-keyboard-response","160","272532","0.0-13.0-2.29","2d_cat_multi_stim_exp1","2022-4-4","12:31:42","25","75","3","9","10","40","30","120","11","19","[""White""]","No","Female","2423990","924","","i","learn","","learn_trial","25.4027","66.0815","in","0","0","","","","","","","","","","","","","","","","","","","","",""
"","","","","","canvas-keyboard-response","161","273541","0.0-13.0-3.29","2d_cat_multi_stim_exp1","2022-4-4","12:31:42","25","75","3","9","10","40","30","120","11","19","[""White""]","No","Female","2423990","null","","null","learn_feedback","","learn_feedback","25.4027","66.0815","in","","","","","","","","","","","","","","","","","","","","","","",""
"","","","","","canvas-keyboard-response","162","273600","0.0-13.0-4.29","2d_cat_multi_stim_exp1","2022-4-4","12:31:42","25","75","3","9","10","40","30","120","11","19","[""White""]","No","Female","2423990","null","","null","","","clear_screen","","","","","","","","","","","","","","","","","","","","","","","","","",""
"","","","","","canvas-keyboard-response","163","274109","0.0-13.0-0.30","2d_cat_multi_stim_exp1","2022-4-4","12:31:42","25","75","3","9","10","40","30","120","11","19","[""White""]","No","Female","2423990","null","","null","","","fixation","","","","","","","","","","","","","","","","","","","","","","","","","",""
"","","","","","canvas-keyboard-response","164","274618","0.0-13.0-1.30","2d_cat_multi_stim_exp1","2022-4-4","12:31:42","25","75","3","9","10","40","30","120","11","19","[""White""]","No","Female","2423990","null","","null","","","clear_screen","","","","","","","","","","","","","","","","","","","","","","","","","",""
"","","","","","canvas-keyboard-response","165","275884","0.0-13.0-2.30","2d_cat_multi_stim_exp1","2022-4-4","12:31:42","25","75","3","9","10","40","30","120","11","19","[""White""]","No","Female","2423990","1255","","u","learn","","learn_trial","25","75","in","1","1","","","","","","","","","","","","","","","","","","","","",""
"","","","","","canvas-keyboard-response","166","276393","0.0-13.0-3.30","2d_cat_multi_stim_exp1","2022-4-4","12:31:42","25","75","3","9","10","40","30","120","11","19","[""White""]","No","Female","2423990","null","","null","learn_feedback","","learn_feedback","25","75","in","","","","","","","","","","","","","","","","","","","","","","",""
"","","","","","canvas-keyboard-response","167","276452","0.0-13.0-4.30","2d_cat_multi_stim_exp1","2022-4-4","12:31:42","25","75","3","9","10","40","30","120","11","19","[""White""]","No","Female","2423990","null","","null","","","clear_screen","","","","","","","","","","","","","","","","","","","","","","","","","",""
"","","","","","canvas-keyboard-response","168","276961","0.0-13.0-0.31","2d_cat_multi_stim_exp1","2022-4-4","12:31:42","25","75","3","9","10","40","30","120","11","19","[""White""]","No","Female","2423990","null","","null","","","fixation","","","","","","","","","","","","","","","","","","","","","","","","","",""
"","","","","","canvas-keyboard-response","169","277470","0.0-13.0-1.31","2d_cat_multi_stim_exp1","2022-4-4","12:31:42","25","75","3","9","10","40","30","120","11","19","[""White""]","No","Female","2423990","null","","null","","","clear_screen","","","","","","","","","","","","","","","","","","","","","","","","","",""
"","","","","","canvas-keyboard-response","170","278307","0.0-13.0-2.31","2d_cat_multi_stim_exp1","2022-4-4","12:31:42","25","75","3","9","10","40","30","120","11","19","[""White""]","No","Female","2423990","827","","i","learn","","learn_trial","40","60","out","0","1","","","","","","","","","","","","","","","","","","","","",""
"","","","","","canvas-keyboard-response","171","278817","0.0-13.0-3.31","2d_cat_multi_stim_exp1","2022-4-4","12:31:42","25","75","3","9","10","40","30","120","11","19","[""White""]","No","Female","2423990","null","","null","learn_feedback","","learn_feedback","40","60","out","","","","","","","","","","","","","","","","","","","","","","",""
"","","","","","canvas-keyboard-response","172","278877","0.0-13.0-4.31","2d_cat_multi_stim_exp1","2022-4-4","12:31:42","25","75","3","9","10","40","30","120","11","19","[""White""]","No","Female","2423990","null","","null","","","clear_screen","","","","","","","","","","","","","","","","","","","","","","","","","",""
"","","","","","canvas-keyboard-response","173","279386","0.0-13.0-0.32","2d_cat_multi_stim_exp1","2022-4-4","12:31:42","25","75","3","9","10","40","30","120","11","19","[""White""]","No","Female","2423990","null","","null","","","fixation","","","","","","","","","","","","","","","","","","","","","","","","","",""
"","","","","","canvas-keyboard-response","174","279896","0.0-13.0-1.32","2d_cat_multi_stim_exp1","2022-4-4","12:31:42","25","75","3","9","10","40","30","120","11","19","[""White""]","No","Female","2423990","null","","null","","","clear_screen","","","","","","","","","","","","","","","","","","","","","","","","","",""
"","","","","","canvas-keyboard-response","175","281715","0.0-13.0-2.32","2d_cat_multi_stim_exp1","2022-4-4","12:31:42","25","75","3","9","10","40","30","120","11","19","[""White""]","No","Female","2423990","1809","","u","learn","","learn_trial","22.5729","69.7099","in","1","1","","","","","","","","","","","","","","","","","","","","",""
"","","","","","canvas-keyboard-response","176","282225","0.0-13.0-3.32","2d_cat_multi_stim_exp1","2022-4-4","12:31:42","25","75","3","9","10","40","30","120","11","19","[""White""]","No","Female","2423990","null","","null","learn_feedback","","learn_feedback","22.5729","69.7099","in","","","","","","","","","","","","","","","","","","","","","","",""
"","","","","","canvas-keyboard-response","177","282285","0.0-13.0-4.32","2d_cat_multi_stim_exp1","2022-4-4","12:31:42","25","75","3","9","10","40","30","120","11","19","[""White""]","No","Female","2423990","null","","null","","","clear_screen","","","","","","","","","","","","","","","","","","","","","","","","","",""
"","","","","","canvas-keyboard-response","178","282794","0.0-13.0-0.33","2d_cat_multi_stim_exp1","2022-4-4","12:31:42","25","75","3","9","10","40","30","120","11","19","[""White""]","No","Female","2423990","null","","null","","","fixation","","","","","","","","","","","","","","","","","","","","","","","","","",""
"","","","","","canvas-keyboard-response","179","283303","0.0-13.0-1.33","2d_cat_multi_stim_exp1","2022-4-4","12:31:42","25","75","3","9","10","40","30","120","11","19","[""White""]","No","Female","2423990","null","","null","","","clear_screen","","","","","","","","","","","","","","","","","","","","","","","","","",""
"","","","","","canvas-keyboard-response","180","285548","0.0-13.0-2.33","2d_cat_multi_stim_exp1","2022-4-4","12:31:42","25","75","3","9","10","40","30","120","11","19","[""White""]","No","Female","2423990","2235","","u","learn","","learn_trial","25","75","in","1","1","","","","","","","","","","","","","","","","","","","","",""
"","","","","","canvas-keyboard-response","181","286057","0.0-13.0-3.33","2d_cat_multi_stim_exp1","2022-4-4","12:31:42","25","75","3","9","10","40","30","120","11","19","[""White""]","No","Female","2423990","null","","null","learn_feedback","","learn_feedback","25","75","in","","","","","","","","","","","","","","","","","","","","","","",""
"","","","","","canvas-keyboard-response","182","286116","0.0-13.0-4.33","2d_cat_multi_stim_exp1","2022-4-4","12:31:42","25","75","3","9","10","40","30","120","11","19","[""White""]","No","Female","2423990","null","","null","","","clear_screen","","","","","","","","","","","","","","","","","","","","","","","","","",""
"","","","","","canvas-keyboard-response","183","286625","0.0-13.0-0.34","2d_cat_multi_stim_exp1","2022-4-4","12:31:42","25","75","3","9","10","40","30","120","11","19","[""White""]","No","Female","2423990","null","","null","","","fixation","","","","","","","","","","","","","","","","","","","","","","","","","",""
"","","","","","canvas-keyboard-response","184","287135","0.0-13.0-1.34","2d_cat_multi_stim_exp1","2022-4-4","12:31:42","25","75","3","9","10","40","30","120","11","19","[""White""]","No","Female","2423990","null","","null","","","clear_screen","","","","","","","","","","","","","","","","","","","","","","","","","",""
"","","","","","canvas-keyboard-response","185","288597","0.0-13.0-2.34","2d_cat_multi_stim_exp1","2022-4-4","12:31:42","25","75","3","9","10","40","30","120","11","19","[""White""]","No","Female","2423990","1451","","u","learn","","learn_trial","25","75","in","1","1","","","","","","","","","","","","","","","","","","","","",""
"","","","","","canvas-keyboard-response","186","289110","0.0-13.0-3.34","2d_cat_multi_stim_exp1","2022-4-4","12:31:42","25","75","3","9","10","40","30","120","11","19","[""White""]","No","Female","2423990","null","","null","learn_feedback","","learn_feedback","25","75","in","","","","","","","","","","","","","","","","","","","","","","",""
"","","","","","canvas-keyboard-response","187","289172","0.0-13.0-4.34","2d_cat_multi_stim_exp1","2022-4-4","12:31:42","25","75","3","9","10","40","30","120","11","19","[""White""]","No","Female","2423990","null","","null","","","clear_screen","","","","","","","","","","","","","","","","","","","","","","","","","",""
"","","","","","canvas-keyboard-response","188","289683","0.0-13.0-0.35","2d_cat_multi_stim_exp1","2022-4-4","12:31:42","25","75","3","9","10","40","30","120","11","19","[""White""]","No","Female","2423990","null","","null","","","fixation","","","","","","","","","","","","","","","","","","","","","","","","","",""
"","","","","","canvas-keyboard-response","189","290194","0.0-13.0-1.35","2d_cat_multi_stim_exp1","2022-4-4","12:31:42","25","75","3","9","10","40","30","120","11","19","[""White""]","No","Female","2423990","null","","null","","","clear_screen","","","","","","","","","","","","","","","","","","","","","","","","","",""
"","","","","","canvas-keyboard-response","190","290940","0.0-13.0-2.35","2d_cat_multi_stim_exp1","2022-4-4","12:31:42","25","75","3","9","10","40","30","120","11","19","[""White""]","No","Female","2423990","736","","u","learn","","learn_trial","25","75","in","1","1","","","","","","","","","","","","","","","","","","","","",""
"","","","","","canvas-keyboard-response","191","291451","0.0-13.0-3.35","2d_cat_multi_stim_exp1","2022-4-4","12:31:42","25","75","3","9","10","40","30","120","11","19","[""White""]","No","Female","2423990","null","","null","learn_feedback","","learn_feedback","25","75","in","","","","","","","","","","","","","","","","","","","","","","",""
"","","","","","canvas-keyboard-response","192","291511","0.0-13.0-4.35","2d_cat_multi_stim_exp1","2022-4-4","12:31:42","25","75","3","9","10","40","30","120","11","19","[""White""]","No","Female","2423990","null","","null","","","clear_screen","","","","","","","","","","","","","","","","","","","","","","","","","",""
"","","","","","canvas-keyboard-response","193","292021","0.0-13.0-0.36","2d_cat_multi_stim_exp1","2022-4-4","12:31:42","25","75","3","9","10","40","30","120","11","19","[""White""]","No","Female","2423990","null","","null","","","fixation","","","","","","","","","","","","","","","","","","","","","","","","","",""
"","","","","","canvas-keyboard-response","194","292531","0.0-13.0-1.36","2d_cat_multi_stim_exp1","2022-4-4","12:31:42","25","75","3","9","10","40","30","120","11","19","[""White""]","No","Female","2423990","null","","null","","","clear_screen","","","","","","","","","","","","","","","","","","","","","","","","","",""
"","","","","","canvas-keyboard-response","195","293636","0.0-13.0-2.36","2d_cat_multi_stim_exp1","2022-4-4","12:31:42","25","75","3","9","10","40","30","120","11","19","[""White""]","No","Female","2423990","1095","","u","learn","","learn_trial","27.9518","73.393","in","1","1","","","","","","","","","","","","","","","","","","","","",""
"","","","","","canvas-keyboard-response","196","294146","0.0-13.0-3.36","2d_cat_multi_stim_exp1","2022-4-4","12:31:42","25","75","3","9","10","40","30","120","11","19","[""White""]","No","Female","2423990","null","","null","learn_feedback","","learn_feedback","27.9518","73.393","in","","","","","","","","","","","","","","","","","","","","","","",""
"","","","","","canvas-keyboard-response","197","294206","0.0-13.0-4.36","2d_cat_multi_stim_exp1","2022-4-4","12:31:42","25","75","3","9","10","40","30","120","11","19","[""White""]","No","Female","2423990","null","","null","","","clear_screen","","","","","","","","","","","","","","","","","","","","","","","","","",""
"","","","","","canvas-keyboard-response","198","294716","0.0-13.0-0.37","2d_cat_multi_stim_exp1","2022-4-4","12:31:42","25","75","3","9","10","40","30","120","11","19","[""White""]","No","Female","2423990","null","","null","","","fixation","","","","","","","","","","","","","","","","","","","","","","","","","",""
"","","","","","canvas-keyboard-response","199","295226","0.0-13.0-1.37","2d_cat_multi_stim_exp1","2022-4-4","12:31:42","25","75","3","9","10","40","30","120","11","19","[""White""]","No","Female","2423990","null","","null","","","clear_screen","","","","","","","","","","","","","","","","","","","","","","","","","",""
"","","","","","canvas-keyboard-response","200","296091","0.0-13.0-2.37","2d_cat_multi_stim_exp1","2022-4-4","12:31:42","25","75","3","9","10","40","30","120","11","19","[""White""]","No","Female","2423990","856","","i","learn","","learn_trial","36.6667","40","out","0","1","","","","","","","","","","","","","","","","","","","","",""
"","","","","","canvas-keyboard-response","201","296601","0.0-13.0-3.37","2d_cat_multi_stim_exp1","2022-4-4","12:31:42","25","75","3","9","10","40","30","120","11","19","[""White""]","No","Female","2423990","null","","null","learn_feedback","","learn_feedback","36.6667","40","out","","","","","","","","","","","","","","","","","","","","","","",""
"","","","","","canvas-keyboard-response","202","296660","0.0-13.0-4.37","2d_cat_multi_stim_exp1","2022-4-4","12:31:42","25","75","3","9","10","40","30","120","11","19","[""White""]","No","Female","2423990","null","","null","","","clear_screen","","","","","","","","","","","","","","","","","","","","","","","","","",""
"","","","","","canvas-keyboard-response","203","297169","0.0-13.0-0.38","2d_cat_multi_stim_exp1","2022-4-4","12:31:42","25","75","3","9","10","40","30","120","11","19","[""White""]","No","Female","2423990","null","","null","","","fixation","","","","","","","","","","","","","","","","","","","","","","","","","",""
"","","","","","canvas-keyboard-response","204","297678","0.0-13.0-1.38","2d_cat_multi_stim_exp1","2022-4-4","12:31:42","25","75","3","9","10","40","30","120","11","19","[""White""]","No","Female","2423990","null","","null","","","clear_screen","","","","","","","","","","","","","","","","","","","","","","","","","",""
"","","","","","canvas-keyboard-response","205","298723","0.0-13.0-2.38","2d_cat_multi_stim_exp1","2022-4-4","12:31:42","25","75","3","9","10","40","30","120","11","19","[""White""]","No","Female","2423990","1036","","i","learn","","learn_trial","36.6667","120","out","0","1","","","","","","","","","","","","","","","","","","","","",""
"","","","","","canvas-keyboard-response","206","299233","0.0-13.0-3.38","2d_cat_multi_stim_exp1","2022-4-4","12:31:42","25","75","3","9","10","40","30","120","11","19","[""White""]","No","Female","2423990","null","","null","learn_feedback","","learn_feedback","36.6667","120","out","","","","","","","","","","","","","","","","","","","","","","",""
"","","","","","canvas-keyboard-response","207","299292","0.0-13.0-4.38","2d_cat_multi_stim_exp1","2022-4-4","12:31:42","25","75","3","9","10","40","30","120","11","19","[""White""]","No","Female","2423990","null","","null","","","clear_screen","","","","","","","","","","","","","","","","","","","","","","","","","",""
"","","","","","canvas-keyboard-response","208","299802","0.0-13.0-0.39","2d_cat_multi_stim_exp1","2022-4-4","12:31:42","25","75","3","9","10","40","30","120","11","19","[""White""]","No","Female","2423990","null","","null","","","fixation","","","","","","","","","","","","","","","","","","","","","","","","","",""
"","","","","","canvas-keyboard-response","209","300312","0.0-13.0-1.39","2d_cat_multi_stim_exp1","2022-4-4","12:31:42","25","75","3","9","10","40","30","120","11","19","[""White""]","No","Female","2423990","null","","null","","","clear_screen","","","","","","","","","","","","","","","","","","","","","","","","","",""
"","","","","","canvas-keyboard-response","210","301315","0.0-13.0-2.39","2d_cat_multi_stim_exp1","2022-4-4","12:31:42","25","75","3","9","10","40","30","120","11","19","[""White""]","No","Female","2423990","994","","i","learn","","learn_trial","33.3333","100","out","0","1","","","","","","","","","","","","","","","","","","","","",""
"","","","","","canvas-keyboard-response","211","301826","0.0-13.0-3.39","2d_cat_multi_stim_exp1","2022-4-4","12:31:42","25","75","3","9","10","40","30","120","11","19","[""White""]","No","Female","2423990","null","","null","learn_feedback","","learn_feedback","33.3333","100","out","","","","","","","","","","","","","","","","","","","","","","",""
"","","","","","canvas-keyboard-response","212","301885","0.0-13.0-4.39","2d_cat_multi_stim_exp1","2022-4-4","12:31:42","25","75","3","9","10","40","30","120","11","19","[""White""]","No","Female","2423990","null","","null","","","clear_screen","","","","","","","","","","","","","","","","","","","","","","","","","",""
"","","","","","canvas-keyboard-response","213","302393","0.0-13.0-0.40","2d_cat_multi_stim_exp1","2022-4-4","12:31:42","25","75","3","9","10","40","30","120","11","19","[""White""]","No","Female","2423990","null","","null","","","fixation","","","","","","","","","","","","","","","","","","","","","","","","","",""
"","","","","","canvas-keyboard-response","214","302903","0.0-13.0-1.40","2d_cat_multi_stim_exp1","2022-4-4","12:31:42","25","75","3","9","10","40","30","120","11","19","[""White""]","No","Female","2423990","null","","null","","","clear_screen","","","","","","","","","","","","","","","","","","","","","","","","","",""
"","","","","","canvas-keyboard-response","215","303746","0.0-13.0-2.40","2d_cat_multi_stim_exp1","2022-4-4","12:31:42","25","75","3","9","10","40","30","120","11","19","[""White""]","No","Female","2423990","834","","i","learn","","learn_trial","13.3333","50","out","0","1","","","","","","","","","","","","","","","","","","","","",""
"","","","","","canvas-keyboard-response","216","304256","0.0-13.0-3.40","2d_cat_multi_stim_exp1","2022-4-4","12:31:42","25","75","3","9","10","40","30","120","11","19","[""White""]","No","Female","2423990","null","","null","learn_feedback","","learn_feedback","13.3333","50","out","","","","","","","","","","","","","","","","","","","","","","",""
"","","","","","canvas-keyboard-response","217","304316","0.0-13.0-4.40","2d_cat_multi_stim_exp1","2022-4-4","12:31:42","25","75","3","9","10","40","30","120","11","19","[""White""]","No","Female","2423990","null","","null","","","clear_screen","","","","","","","","","","","","","","","","","","","","","","","","","",""
"","","","","","canvas-keyboard-response","218","304824","0.0-13.0-0.41","2d_cat_multi_stim_exp1","2022-4-4","12:31:42","25","75","3","9","10","40","30","120","11","19","[""White""]","No","Female","2423990","null","","null","","","fixation","","","","","","","","","","","","","","","","","","","","","","","","","",""
"","","","","","canvas-keyboard-response","219","305335","0.0-13.0-1.41","2d_cat_multi_stim_exp1","2022-4-4","12:31:42","25","75","3","9","10","40","30","120","11","19","[""White""]","No","Female","2423990","null","","null","","","clear_screen","","","","","","","","","","","","","","","","","","","","","","","","","",""
"","","","","","canvas-keyboard-response","220","306451","0.0-13.0-2.41","2d_cat_multi_stim_exp1","2022-4-4","12:31:42","25","75","3","9","10","40","30","120","11","19","[""White""]","No","Female","2423990","1108","","u","learn","","learn_trial","25","75","in","1","1","","","","","","","","","","","","","","","","","","","","",""
"","","","","","canvas-keyboard-response","221","306961","0.0-13.0-3.41","2d_cat_multi_stim_exp1","2022-4-4","12:31:42","25","75","3","9","10","40","30","120","11","19","[""White""]","No","Female","2423990","null","","null","learn_feedback","","learn_feedback","25","75","in","","","","","","","","","","","","","","","","","","","","","","",""
"","","","","","canvas-keyboard-response","222","307020","0.0-13.0-4.41","2d_cat_multi_stim_exp1","2022-4-4","12:31:42","25","75","3","9","10","40","30","120","11","19","[""White""]","No","Female","2423990","null","","null","","","clear_screen","","","","","","","","","","","","","","","","","","","","","","","","","",""
"","","","","","canvas-keyboard-response","223","307529","0.0-13.0-0.42","2d_cat_multi_stim_exp1","2022-4-4","12:31:42","25","75","3","9","10","40","30","120","11","19","[""White""]","No","Female","2423990","null","","null","","","fixation","","","","","","","","","","","","","","","","","","","","","","","","","",""
"","","","","","canvas-keyboard-response","224","308041","0.0-13.0-1.42","2d_cat_multi_stim_exp1","2022-4-4","12:31:42","25","75","3","9","10","40","30","120","11","19","[""White""]","No","Female","2423990","null","","null","","","clear_screen","","","","","","","","","","","","","","","","","","","","","","","","","",""
"","","","","","canvas-keyboard-response","225","310571","0.0-13.0-2.42","2d_cat_multi_stim_exp1","2022-4-4","12:31:42","25","75","3","9","10","40","30","120","11","19","[""White""]","No","Female","2423990","2522","","u","learn","","learn_trial","25","75","in","1","1","","","","","","","","","","","","","","","","","","","","",""
"","","","","","canvas-keyboard-response","226","311081","0.0-13.0-3.42","2d_cat_multi_stim_exp1","2022-4-4","12:31:42","25","75","3","9","10","40","30","120","11","19","[""White""]","No","Female","2423990","null","","null","learn_feedback","","learn_feedback","25","75","in","","","","","","","","","","","","","","","","","","","","","","",""
"","","","","","canvas-keyboard-response","227","311140","0.0-13.0-4.42","2d_cat_multi_stim_exp1","2022-4-4","12:31:42","25","75","3","9","10","40","30","120","11","19","[""White""]","No","Female","2423990","null","","null","","","clear_screen","","","","","","","","","","","","","","","","","","","","","","","","","",""
"","","","","","canvas-keyboard-response","228","311649","0.0-13.0-0.43","2d_cat_multi_stim_exp1","2022-4-4","12:31:42","25","75","3","9","10","40","30","120","11","19","[""White""]","No","Female","2423990","null","","null","","","fixation","","","","","","","","","","","","","","","","","","","","","","","","","",""
"","","","","","canvas-keyboard-response","229","312158","0.0-13.0-1.43","2d_cat_multi_stim_exp1","2022-4-4","12:31:42","25","75","3","9","10","40","30","120","11","19","[""White""]","No","Female","2423990","null","","null","","","clear_screen","","","","","","","","","","","","","","","","","","","","","","","","","",""
"","","","","","canvas-keyboard-response","230","313419","0.0-13.0-2.43","2d_cat_multi_stim_exp1","2022-4-4","12:31:42","25","75","3","9","10","40","30","120","11","19","[""White""]","No","Female","2423990","1250","","u","learn","","learn_trial","25","75","in","1","1","","","","","","","","","","","","","","","","","","","","",""
"","","","","","canvas-keyboard-response","231","313930","0.0-13.0-3.43","2d_cat_multi_stim_exp1","2022-4-4","12:31:42","25","75","3","9","10","40","30","120","11","19","[""White""]","No","Female","2423990","null","","null","learn_feedback","","learn_feedback","25","75","in","","","","","","","","","","","","","","","","","","","","","","",""
"","","","","","canvas-keyboard-response","232","313988","0.0-13.0-4.43","2d_cat_multi_stim_exp1","2022-4-4","12:31:42","25","75","3","9","10","40","30","120","11","19","[""White""]","No","Female","2423990","null","","null","","","clear_screen","","","","","","","","","","","","","","","","","","","","","","","","","",""
"","","","","","canvas-keyboard-response","233","314498","0.0-13.0-0.44","2d_cat_multi_stim_exp1","2022-4-4","12:31:42","25","75","3","9","10","40","30","120","11","19","[""White""]","No","Female","2423990","null","","null","","","fixation","","","","","","","","","","","","","","","","","","","","","","","","","",""
"","","","","","canvas-keyboard-response","234","315007","0.0-13.0-1.44","2d_cat_multi_stim_exp1","2022-4-4","12:31:42","25","75","3","9","10","40","30","120","11","19","[""White""]","No","Female","2423990","null","","null","","","clear_screen","","","","","","","","","","","","","","","","","","","","","","","","","",""
"","","","","","canvas-keyboard-response","235","317491","0.0-13.0-2.44","2d_cat_multi_stim_exp1","2022-4-4","12:31:42","25","75","3","9","10","40","30","120","11","19","[""White""]","No","Female","2423990","2475","","i","learn","","learn_trial","28","75","in","0","0","","","","","","","","","","","","","","","","","","","","",""
"","","","","","canvas-keyboard-response","236","318501","0.0-13.0-3.44","2d_cat_multi_stim_exp1","2022-4-4","12:31:42","25","75","3","9","10","40","30","120","11","19","[""White""]","No","Female","2423990","null","","null","learn_feedback","","learn_feedback","28","75","in","","","","","","","","","","","","","","","","","","","","","","",""
"","","","","","canvas-keyboard-response","237","318560","0.0-13.0-4.44","2d_cat_multi_stim_exp1","2022-4-4","12:31:42","25","75","3","9","10","40","30","120","11","19","[""White""]","No","Female","2423990","null","","null","","","clear_screen","","","","","","","","","","","","","","","","","","","","","","","","","",""
"","","","","","canvas-keyboard-response","238","319069","0.0-13.0-0.45","2d_cat_multi_stim_exp1","2022-4-4","12:31:42","25","75","3","9","10","40","30","120","11","19","[""White""]","No","Female","2423990","null","","null","","","fixation","","","","","","","","","","","","","","","","","","","","","","","","","",""
"","","","","","canvas-keyboard-response","239","319579","0.0-13.0-1.45","2d_cat_multi_stim_exp1","2022-4-4","12:31:42","25","75","3","9","10","40","30","120","11","19","[""White""]","No","Female","2423990","null","","null","","","clear_screen","","","","","","","","","","","","","","","","","","","","","","","","","",""
"","","","","","canvas-keyboard-response","240","320819","0.0-13.0-2.45","2d_cat_multi_stim_exp1","2022-4-4","12:31:42","25","75","3","9","10","40","30","120","11","19","[""White""]","No","Female","2423990","1230","","u","learn","","learn_trial","27.8087","71.8376","in","1","1","","","","","","","","","","","","","","","","","","","","",""
"","","","","","canvas-keyboard-response","241","321334","0.0-13.0-3.45","2d_cat_multi_stim_exp1","2022-4-4","12:31:42","25","75","3","9","10","40","30","120","11","19","[""White""]","No","Female","2423990","null","","null","learn_feedback","","learn_feedback","27.8087","71.8376","in","","","","","","","","","","","","","","","","","","","","","","",""
"","","","","","canvas-keyboard-response","242","321395","0.0-13.0-4.45","2d_cat_multi_stim_exp1","2022-4-4","12:31:42","25","75","3","9","10","40","30","120","11","19","[""White""]","No","Female","2423990","null","","null","","","clear_screen","","","","","","","","","","","","","","","","","","","","","","","","","",""
"","","","","","canvas-keyboard-response","243","321907","0.0-13.0-0.46","2d_cat_multi_stim_exp1","2022-4-4","12:31:42","25","75","3","9","10","40","30","120","11","19","[""White""]","No","Female","2423990","null","","null","","","fixation","","","","","","","","","","","","","","","","","","","","","","","","","",""
"","","","","","canvas-keyboard-response","244","322417","0.0-13.0-1.46","2d_cat_multi_stim_exp1","2022-4-4","12:31:42","25","75","3","9","10","40","30","120","11","19","[""White""]","No","Female","2423990","null","","null","","","clear_screen","","","","","","","","","","","","","","","","","","","","","","","","","",""
"","","","","","canvas-keyboard-response","245","323539","0.0-13.0-2.46","2d_cat_multi_stim_exp1","2022-4-4","12:31:42","25","75","3","9","10","40","30","120","11","19","[""White""]","No","Female","2423990","1111","","i","learn","","learn_trial","23.3473","67.4888","in","0","0","","","","","","","","","","","","","","","","","","","","",""
"","","","","","canvas-keyboard-response","246","324550","0.0-13.0-3.46","2d_cat_multi_stim_exp1","2022-4-4","12:31:42","25","75","3","9","10","40","30","120","11","19","[""White""]","No","Female","2423990","null","","null","learn_feedback","","learn_feedback","23.3473","67.4888","in","","","","","","","","","","","","","","","","","","","","","","",""
"","","","","","canvas-keyboard-response","247","324608","0.0-13.0-4.46","2d_cat_multi_stim_exp1","2022-4-4","12:31:42","25","75","3","9","10","40","30","120","11","19","[""White""]","No","Female","2423990","null","","null","","","clear_screen","","","","","","","","","","","","","","","","","","","","","","","","","",""
"","","","","","canvas-keyboard-response","248","325119","0.0-13.0-0.47","2d_cat_multi_stim_exp1","2022-4-4","12:31:42","25","75","3","9","10","40","30","120","11","19","[""White""]","No","Female","2423990","null","","null","","","fixation","","","","","","","","","","","","","","","","","","","","","","","","","",""
"","","","","","canvas-keyboard-response","249","325629","0.0-13.0-1.47","2d_cat_multi_stim_exp1","2022-4-4","12:31:42","25","75","3","9","10","40","30","120","11","19","[""White""]","No","Female","2423990","null","","null","","","clear_screen","","","","","","","","","","","","","","","","","","","","","","","","","",""
"","","","","","canvas-keyboard-response","250","326435","0.0-13.0-2.47","2d_cat_multi_stim_exp1","2022-4-4","12:31:42","25","75","3","9","10","40","30","120","11","19","[""White""]","No","Female","2423990","796","","i","learn","","learn_trial","40","30","out","0","1","","","","","","","","","","","","","","","","","","","","",""
"","","","","","canvas-keyboard-response","251","326947","0.0-13.0-3.47","2d_cat_multi_stim_exp1","2022-4-4","12:31:42","25","75","3","9","10","40","30","120","11","19","[""White""]","No","Female","2423990","null","","null","learn_feedback","","learn_feedback","40","30","out","","","","","","","","","","","","","","","","","","","","","","",""
"","","","","","canvas-keyboard-response","252","327006","0.0-13.0-4.47","2d_cat_multi_stim_exp1","2022-4-4","12:31:42","25","75","3","9","10","40","30","120","11","19","[""White""]","No","Female","2423990","null","","null","","","clear_screen","","","","","","","","","","","","","","","","","","","","","","","","","",""
"","","","","","canvas-keyboard-response","253","327517","0.0-13.0-0.48","2d_cat_multi_stim_exp1","2022-4-4","12:31:42","25","75","3","9","10","40","30","120","11","19","[""White""]","No","Female","2423990","null","","null","","","fixation","","","","","","","","","","","","","","","","","","","","","","","","","",""
"","","","","","canvas-keyboard-response","254","328026","0.0-13.0-1.48","2d_cat_multi_stim_exp1","2022-4-4","12:31:42","25","75","3","9","10","40","30","120","11","19","[""White""]","No","Female","2423990","null","","null","","","clear_screen","","","","","","","","","","","","","","","","","","","","","","","","","",""
"","","","","","canvas-keyboard-response","255","329027","0.0-13.0-2.48","2d_cat_multi_stim_exp1","2022-4-4","12:31:42","25","75","3","9","10","40","30","120","11","19","[""White""]","No","Female","2423990","991","","u","learn","","learn_trial","26.6667","60","out","1","0","","","","","","","","","","","","","","","","","","","","",""
"","","","","","canvas-keyboard-response","256","330037","0.0-13.0-3.48","2d_cat_multi_stim_exp1","2022-4-4","12:31:42","25","75","3","9","10","40","30","120","11","19","[""White""]","No","Female","2423990","null","","null","learn_feedback","","learn_feedback","26.6667","60","out","","","","","","","","","","","","","","","","","","","","","","",""
"","","","","","canvas-keyboard-response","257","330096","0.0-13.0-4.48","2d_cat_multi_stim_exp1","2022-4-4","12:31:42","25","75","3","9","10","40","30","120","11","19","[""White""]","No","Female","2423990","null","","null","","","clear_screen","","","","","","","","","","","","","","","","","","","","","","","","","",""
"","","","","","canvas-keyboard-response","258","330605","0.0-13.0-0.49","2d_cat_multi_stim_exp1","2022-4-4","12:31:42","25","75","3","9","10","40","30","120","11","19","[""White""]","No","Female","2423990","null","","null","","","fixation","","","","","","","","","","","","","","","","","","","","","","","","","",""
"","","","","","canvas-keyboard-response","259","331115","0.0-13.0-1.49","2d_cat_multi_stim_exp1","2022-4-4","12:31:42","25","75","3","9","10","40","30","120","11","19","[""White""]","No","Female","2423990","null","","null","","","clear_screen","","","","","","","","","","","","","","","","","","","","","","","","","",""
"","","","","","canvas-keyboard-response","260","334291","0.0-13.0-2.49","2d_cat_multi_stim_exp1","2022-4-4","12:31:42","25","75","3","9","10","40","30","120","11","19","[""White""]","No","Female","2423990","3166","","i","learn","","learn_trial","13.3333","90","out","0","1","","","","","","","","","","","","","","","","","","","","",""
"","","","","","canvas-keyboard-response","261","334801","0.0-13.0-3.49","2d_cat_multi_stim_exp1","2022-4-4","12:31:42","25","75","3","9","10","40","30","120","11","19","[""White""]","No","Female","2423990","null","","null","learn_feedback","","learn_feedback","13.3333","90","out","","","","","","","","","","","","","","","","","","","","","","",""
"","","","","","canvas-keyboard-response","262","334860","0.0-13.0-4.49","2d_cat_multi_stim_exp1","2022-4-4","12:31:42","25","75","3","9","10","40","30","120","11","19","[""White""]","No","Female","2423990","null","","null","","","clear_screen","","","","","","","","","","","","","","","","","","","","","","","","","",""
"","","","","","canvas-keyboard-response","263","335368","0.0-13.0-0.50","2d_cat_multi_stim_exp1","2022-4-4","12:31:42","25","75","3","9","10","40","30","120","11","19","[""White""]","No","Female","2423990","null","","null","","","fixation","","","","","","","","","","","","","","","","","","","","","","","","","",""
"","","","","","canvas-keyboard-response","264","335879","0.0-13.0-1.50","2d_cat_multi_stim_exp1","2022-4-4","12:31:42","25","75","3","9","10","40","30","120","11","19","[""White""]","No","Female","2423990","null","","null","","","clear_screen","","","","","","","","","","","","","","","","","","","","","","","","","",""
"","","","","","canvas-keyboard-response","265","337779","0.0-13.0-2.50","2d_cat_multi_stim_exp1","2022-4-4","12:31:42","25","75","3","9","10","40","30","120","11","19","[""White""]","No","Female","2423990","1890","","u","learn","","learn_trial","19","75","in","1","1","","","","","","","","","","","","","","","","","","","","",""
"","","","","","canvas-keyboard-response","266","338289","0.0-13.0-3.50","2d_cat_multi_stim_exp1","2022-4-4","12:31:42","25","75","3","9","10","40","30","120","11","19","[""White""]","No","Female","2423990","null","","null","learn_feedback","","learn_feedback","19","75","in","","","","","","","","","","","","","","","","","","","","","","",""
"","","","","","canvas-keyboard-response","267","338348","0.0-13.0-4.50","2d_cat_multi_stim_exp1","2022-4-4","12:31:42","25","75","3","9","10","40","30","120","11","19","[""White""]","No","Female","2423990","null","","null","","","clear_screen","","","","","","","","","","","","","","","","","","","","","","","","","",""
"","","","","","canvas-keyboard-response","268","338857","0.0-13.0-0.51","2d_cat_multi_stim_exp1","2022-4-4","12:31:42","25","75","3","9","10","40","30","120","11","19","[""White""]","No","Female","2423990","null","","null","","","fixation","","","","","","","","","","","","","","","","","","","","","","","","","",""
"","","","","","canvas-keyboard-response","269","339367","0.0-13.0-1.51","2d_cat_multi_stim_exp1","2022-4-4","12:31:42","25","75","3","9","10","40","30","120","11","19","[""White""]","No","Female","2423990","null","","null","","","clear_screen","","","","","","","","","","","","","","","","","","","","","","","","","",""
"","","","","","canvas-keyboard-response","270","340323","0.0-13.0-2.51","2d_cat_multi_stim_exp1","2022-4-4","12:31:42","25","75","3","9","10","40","30","120","11","19","[""White""]","No","Female","2423990","946","","i","learn","","learn_trial","13.3333","120","out","0","1","","","","","","","","","","","","","","","","","","","","",""
"","","","","","canvas-keyboard-response","271","340832","0.0-13.0-3.51","2d_cat_multi_stim_exp1","2022-4-4","12:31:42","25","75","3","9","10","40","30","120","11","19","[""White""]","No","Female","2423990","null","","null","learn_feedback","","learn_feedback","13.3333","120","out","","","","","","","","","","","","","","","","","","","","","","",""
"","","","","","canvas-keyboard-response","272","340895","0.0-13.0-4.51","2d_cat_multi_stim_exp1","2022-4-4","12:31:42","25","75","3","9","10","40","30","120","11","19","[""White""]","No","Female","2423990","null","","null","","","clear_screen","","","","","","","","","","","","","","","","","","","","","","","","","",""
"","","","","","canvas-keyboard-response","273","341402","0.0-13.0-0.52","2d_cat_multi_stim_exp1","2022-4-4","12:31:42","25","75","3","9","10","40","30","120","11","19","[""White""]","No","Female","2423990","null","","null","","","fixation","","","","","","","","","","","","","","","","","","","","","","","","","",""
"","","","","","canvas-keyboard-response","274","341912","0.0-13.0-1.52","2d_cat_multi_stim_exp1","2022-4-4","12:31:42","25","75","3","9","10","40","30","120","11","19","[""White""]","No","Female","2423990","null","","null","","","clear_screen","","","","","","","","","","","","","","","","","","","","","","","","","",""
"","","","","","canvas-keyboard-response","275","353820","0.0-13.0-2.52","2d_cat_multi_stim_exp1","2022-4-4","12:31:42","25","75","3","9","10","40","30","120","11","19","[""White""]","No","Female","2423990","11898","","u","learn","","learn_trial","25","75","in","1","1","","","","","","","","","","","","","","","","","","","","",""
"","","","","","canvas-keyboard-response","276","354333","0.0-13.0-3.52","2d_cat_multi_stim_exp1","2022-4-4","12:31:42","25","75","3","9","10","40","30","120","11","19","[""White""]","No","Female","2423990","null","","null","learn_feedback","","learn_feedback","25","75","in","","","","","","","","","","","","","","","","","","","","","","",""
"","","","","","canvas-keyboard-response","277","354395","0.0-13.0-4.52","2d_cat_multi_stim_exp1","2022-4-4","12:31:42","25","75","3","9","10","40","30","120","11","19","[""White""]","No","Female","2423990","null","","null","","","clear_screen","","","","","","","","","","","","","","","","","","","","","","","","","",""
"","","","","","canvas-keyboard-response","278","354906","0.0-13.0-0.53","2d_cat_multi_stim_exp1","2022-4-4","12:31:42","25","75","3","9","10","40","30","120","11","19","[""White""]","No","Female","2423990","null","","null","","","fixation","","","","","","","","","","","","","","","","","","","","","","","","","",""
"","","","","","canvas-keyboard-response","279","355418","0.0-13.0-1.53","2d_cat_multi_stim_exp1","2022-4-4","12:31:42","25","75","3","9","10","40","30","120","11","19","[""White""]","No","Female","2423990","null","","null","","","clear_screen","","","","","","","","","","","","","","","","","","","","","","","","","",""
"","","","","","canvas-keyboard-response","280","356219","0.0-13.0-2.53","2d_cat_multi_stim_exp1","2022-4-4","12:31:42","25","75","3","9","10","40","30","120","11","19","[""White""]","No","Female","2423990","792","","i","learn","","learn_trial","25","57","in","0","0","","","","","","","","","","","","","","","","","","","","",""
"","","","","","canvas-keyboard-response","281","357229","0.0-13.0-3.53","2d_cat_multi_stim_exp1","2022-4-4","12:31:42","25","75","3","9","10","40","30","120","11","19","[""White""]","No","Female","2423990","null","","null","learn_feedback","","learn_feedback","25","57","in","","","","","","","","","","","","","","","","","","","","","","",""
"","","","","","canvas-keyboard-response","282","357289","0.0-13.0-4.53","2d_cat_multi_stim_exp1","2022-4-4","12:31:42","25","75","3","9","10","40","30","120","11","19","[""White""]","No","Female","2423990","null","","null","","","clear_screen","","","","","","","","","","","","","","","","","","","","","","","","","",""
"","","","","","canvas-keyboard-response","283","357799","0.0-13.0-0.54","2d_cat_multi_stim_exp1","2022-4-4","12:31:42","25","75","3","9","10","40","30","120","11","19","[""White""]","No","Female","2423990","null","","null","","","fixation","","","","","","","","","","","","","","","","","","","","","","","","","",""
"","","","","","canvas-keyboard-response","284","358309","0.0-13.0-1.54","2d_cat_multi_stim_exp1","2022-4-4","12:31:42","25","75","3","9","10","40","30","120","11","19","[""White""]","No","Female","2423990","null","","null","","","clear_screen","","","","","","","","","","","","","","","","","","","","","","","","","",""
"","","","","","canvas-keyboard-response","285","361660","0.0-13.0-2.54","2d_cat_multi_stim_exp1","2022-4-4","12:31:42","25","75","3","9","10","40","30","120","11","19","[""White""]","No","Female","2423990","3340","","u","learn","","learn_trial","23.3333","80","out","1","0","","","","","","","","","","","","","","","","","","","","",""
"","","","","","canvas-keyboard-response","286","362671","0.0-13.0-3.54","2d_cat_multi_stim_exp1","2022-4-4","12:31:42","25","75","3","9","10","40","30","120","11","19","[""White""]","No","Female","2423990","null","","null","learn_feedback","","learn_feedback","23.3333","80","out","","","","","","","","","","","","","","","","","","","","","","",""
"","","","","","canvas-keyboard-response","287","362730","0.0-13.0-4.54","2d_cat_multi_stim_exp1","2022-4-4","12:31:42","25","75","3","9","10","40","30","120","11","19","[""White""]","No","Female","2423990","null","","null","","","clear_screen","","","","","","","","","","","","","","","","","","","","","","","","","",""
"","","","","","canvas-keyboard-response","288","363240","0.0-13.0-0.55","2d_cat_multi_stim_exp1","2022-4-4","12:31:42","25","75","3","9","10","40","30","120","11","19","[""White""]","No","Female","2423990","null","","null","","","fixation","","","","","","","","","","","","","","","","","","","","","","","","","",""
"","","","","","canvas-keyboard-response","289","363749","0.0-13.0-1.55","2d_cat_multi_stim_exp1","2022-4-4","12:31:42","25","75","3","9","10","40","30","120","11","19","[""White""]","No","Female","2423990","null","","null","","","clear_screen","","","","","","","","","","","","","","","","","","","","","","","","","",""
"","","","","","canvas-keyboard-response","290","367132","0.0-13.0-2.55","2d_cat_multi_stim_exp1","2022-4-4","12:31:42","25","75","3","9","10","40","30","120","11","19","[""White""]","No","Female","2423990","3372","","u","learn","","learn_trial","25","75","in","1","1","","","","","","","","","","","","","","","","","","","","",""
"","","","","","canvas-keyboard-response","291","367642","0.0-13.0-3.55","2d_cat_multi_stim_exp1","2022-4-4","12:31:42","25","75","3","9","10","40","30","120","11","19","[""White""]","No","Female","2423990","null","","null","learn_feedback","","learn_feedback","25","75","in","","","","","","","","","","","","","","","","","","","","","","",""
"","","","","","canvas-keyboard-response","292","367701","0.0-13.0-4.55","2d_cat_multi_stim_exp1","2022-4-4","12:31:42","25","75","3","9","10","40","30","120","11","19","[""White""]","No","Female","2423990","null","","null","","","clear_screen","","","","","","","","","","","","","","","","","","","","","","","","","",""
"","","","","","canvas-keyboard-response","293","368210","0.0-13.0-0.56","2d_cat_multi_stim_exp1","2022-4-4","12:31:42","25","75","3","9","10","40","30","120","11","19","[""White""]","No","Female","2423990","null","","null","","","fixation","","","","","","","","","","","","","","","","","","","","","","","","","",""
"","","","","","canvas-keyboard-response","294","368721","0.0-13.0-1.56","2d_cat_multi_stim_exp1","2022-4-4","12:31:42","25","75","3","9","10","40","30","120","11","19","[""White""]","No","Female","2423990","null","","null","","","clear_screen","","","","","","","","","","","","","","","","","","","","","","","","","",""
"","","","","","canvas-keyboard-response","295","369580","0.0-13.0-2.56","2d_cat_multi_stim_exp1","2022-4-4","12:31:42","25","75","3","9","10","40","30","120","11","19","[""White""]","No","Female","2423990","850","","i","learn","","learn_trial","33.3333","50","out","0","1","","","","","","","","","","","","","","","","","","","","",""
"","","","","","canvas-keyboard-response","296","370089","0.0-13.0-3.56","2d_cat_multi_stim_exp1","2022-4-4","12:31:42","25","75","3","9","10","40","30","120","11","19","[""White""]","No","Female","2423990","null","","null","learn_feedback","","learn_feedback","33.3333","50","out","","","","","","","","","","","","","","","","","","","","","","",""
