"success","timeout","failed_images","failed_audio","failed_video","trial_type","trial_index","time_elapsed","internal_node_id","exp_name","date","time","angle_mean_in","radius_mean_in","angle_sd_in","radius_sd_in","angle_min_out","angle_max_out","radius_min_out","radius_max_out","sub_n","age","race","ethnicity","gender","exp_duration","rt","response","exp_trial_type","stimulus","view_history","screen_id","angle","radius","distribution","choice","correct","order","angle_a","radius_a","angle_b","radius_b","angle_c","radius_c","jkl_correct","transfer_trial_type","choice_set","abc_correct","tc_correct","tc_angle","tdc_a","tdc_b","tdc_c","pair","category_a","category_b","category_c","question_order"
"true","false","[]","[]","[]","preload","0","58","0.0-0.0","2d_cat_multi_stim_exp1","2022-4-5","15:13:9","25","75","3","9","10","40","30","120","14","19","[""Black or African-American"",""White""]","No","Female","2182865","","","","","","","","","","","","","","","","","","","","","","","","","","","","","","","",""
"","","","","","survey-html-form","1","3827","0.0-1.0","2d_cat_multi_stim_exp1","2022-4-5","15:13:9","25","75","3","9","10","40","30","120","14","19","[""Black or African-American"",""White""]","No","Female","2182865","3753","{""response"":""14""}","enter-sub-number","","","","","","","","","","","","","","","","","","","","","","","","","","","","",""
"true","","","","","fullscreen","2","7615","0.0-2.0","2d_cat_multi_stim_exp1","2022-4-5","15:13:9","25","75","3","9","10","40","30","120","14","19","[""Black or African-American"",""White""]","No","Female","2182865","","","","","","","","","","","","","","","","","","","","","","","","","","","","","","","",""
"","","","","","image-button-response","3","94605","0.0-3.0","2d_cat_multi_stim_exp1","2022-4-5","15:13:9","25","75","3","9","10","40","30","120","14","19","[""Black or African-American"",""White""]","No","Female","2182865","86982","0","","consent.png","","","","","","","","","","","","","","","","","","","","","","","","","","","",""
"","","","","","html-button-response","4","98077","0.0-4.0","2d_cat_multi_stim_exp1","2022-4-5","15:13:9","25","75","3","9","10","40","30","120","14","19","[""Black or African-American"",""White""]","No","Female","2182865","3466","0","","<div style= ""font-size:25px;"" <p> <strong> Welcome to the experiment! </strong><br> <p style=""color:#8B0000; font-size:25px;""><strong> Please do NOT exit full screen until you are done with the experiment. </strong> </p><p style=""font-size:25px;color:#8B0000;""> <strong> The experiment will be canceled and your data will be lost <br> if you try to go back or refresh the page at any point during the experiment.</strong> </p><br><p> <strong> Thanks in advance for your contribution to our research! </strong></p>","","","","","","","","","","","","","","","","","","","","","","","","","","","",""
"","","","","","instructions","5","161556","0.0-5.0","2d_cat_multi_stim_exp1","2022-4-5","15:13:9","25","75","3","9","10","40","30","120","14","19","[""Black or African-American"",""White""]","No","Female","2182865","63475","","","","[{""page_index"":0,""viewing_time"":11131},{""page_index"":1,""viewing_time"":4784},{""page_index"":2,""viewing_time"":23528},{""page_index"":3,""viewing_time"":24032}]","instructions_1","","","","","","","","","","","","","","","","","","","","","","","","","",""
"","","","","","instructions","6","164132","0.0-6.0","2d_cat_multi_stim_exp1","2022-4-5","15:13:9","25","75","3","9","10","40","30","120","14","19","[""Black or African-American"",""White""]","No","Female","2182865","2573","","","","[{""page_index"":0,""viewing_time"":2572}]","Click to see the kinds of turtles that will appear in the study.","","","","","","","","","","","","","","","","","","","","","","","","","",""
"","","","","","canvas-keyboard-response","7","179154","0.0-7.0","2d_cat_multi_stim_exp1","2022-4-5","15:13:9","25","75","3","9","10","40","30","120","14","19","[""Black or African-American"",""White""]","No","Female","2182865","null","null","","","","demo_range","","","","","","","","","","","","","","","","","","","","","","","","","",""
"","","","","","instructions","8","183076","0.0-8.0","2d_cat_multi_stim_exp1","2022-4-5","15:13:9","25","75","3","9","10","40","30","120","14","19","[""Black or African-American"",""White""]","No","Female","2182865","3420","","","","[{""page_index"":0,""viewing_time"":3420}]","Click to see some turtles in the subspecies.","","","","","","","","","","","","","","","","","","","","","","","","","",""
"","","","","","canvas-keyboard-response","9","198094","0.0-9.0","2d_cat_multi_stim_exp1","2022-4-5","15:13:9","25","75","3","9","10","40","30","120","14","19","[""Black or African-American"",""White""]","No","Female","2182865","null","null","","","","demo_in","","","","","","","","","","","","","","","","","","","","","","","","","",""
"","","","","","instructions","10","272147","0.0-10.0","2d_cat_multi_stim_exp1","2022-4-5","15:13:9","25","75","3","9","10","40","30","120","14","19","[""Black or African-American"",""White""]","No","Female","2182865","73551","","","","[{""page_index"":0,""viewing_time"":9279},{""page_index"":1,""viewing_time"":57024},{""page_index"":2,""viewing_time"":7248}]","instructions_2","","","","","","","","","","","","","","","","","","","","","","","","","",""
"","","","","","instructions","11","273603","0.0-11.0","2d_cat_multi_stim_exp1","2022-4-5","15:13:9","25","75","3","9","10","40","30","120","14","19","[""Black or African-American"",""White""]","No","Female","2182865","1453","","","","[{""page_index"":0,""viewing_time"":1453}]","Click to begin the first phase of the experiment.","","","","","","","","","","","","","","","","","","","","","","","","","",""
"","","","","","canvas-keyboard-response","12","274113","0.0-12.0-0.0","2d_cat_multi_stim_exp1","2022-4-5","15:13:9","25","75","3","9","10","40","30","120","14","19","[""Black or African-American"",""White""]","No","Female","2182865","null","null","","","","fixation","","","","","","","","","","","","","","","","","","","","","","","","","",""
"","","","","","canvas-keyboard-response","13","274624","0.0-12.0-1.0","2d_cat_multi_stim_exp1","2022-4-5","15:13:9","25","75","3","9","10","40","30","120","14","19","[""Black or African-American"",""White""]","No","Female","2182865","null","null","","","","clear_screen","","","","","","","","","","","","","","","","","","","","","","","","","",""
"","","","","","canvas-keyboard-response","14","283329","0.0-12.0-2.0","2d_cat_multi_stim_exp1","2022-4-5","15:13:9","25","75","3","9","10","40","30","120","14","19","[""Black or African-American"",""White""]","No","Female","2182865","8694","i","learn","","","learn_trial","30","90","out","0","1","","","","","","","","","","","","","","","","","","","","",""
"","","","","","canvas-keyboard-response","15","283845","0.0-12.0-3.0","2d_cat_multi_stim_exp1","2022-4-5","15:13:9","25","75","3","9","10","40","30","120","14","19","[""Black or African-American"",""White""]","No","Female","2182865","null","null","learn_feedback","","","learn_feedback","30","90","out","","","","","","","","","","","","","","","","","","","","","","",""
"","","","","","canvas-keyboard-response","16","283904","0.0-12.0-4.0","2d_cat_multi_stim_exp1","2022-4-5","15:13:9","25","75","3","9","10","40","30","120","14","19","[""Black or African-American"",""White""]","No","Female","2182865","null","null","","","","clear_screen","","","","","","","","","","","","","","","","","","","","","","","","","",""
"","","","","","canvas-keyboard-response","17","284414","0.0-12.0-0.1","2d_cat_multi_stim_exp1","2022-4-5","15:13:9","25","75","3","9","10","40","30","120","14","19","[""Black or African-American"",""White""]","No","Female","2182865","null","null","","","","fixation","","","","","","","","","","","","","","","","","","","","","","","","","",""
"","","","","","canvas-keyboard-response","18","284924","0.0-12.0-1.1","2d_cat_multi_stim_exp1","2022-4-5","15:13:9","25","75","3","9","10","40","30","120","14","19","[""Black or African-American"",""White""]","No","Female","2182865","null","null","","","","clear_screen","","","","","","","","","","","","","","","","","","","","","","","","","",""
"","","","","","canvas-keyboard-response","19","287184","0.0-12.0-2.1","2d_cat_multi_stim_exp1","2022-4-5","15:13:9","25","75","3","9","10","40","30","120","14","19","[""Black or African-American"",""White""]","No","Female","2182865","2252","u","learn","","","learn_trial","25.4027","83.9185","in","1","1","","","","","","","","","","","","","","","","","","","","",""
"","","","","","canvas-keyboard-response","20","287695","0.0-12.0-3.1","2d_cat_multi_stim_exp1","2022-4-5","15:13:9","25","75","3","9","10","40","30","120","14","19","[""Black or African-American"",""White""]","No","Female","2182865","null","null","learn_feedback","","","learn_feedback","25.4027","83.9185","in","","","","","","","","","","","","","","","","","","","","","","",""
"","","","","","canvas-keyboard-response","21","287756","0.0-12.0-4.1","2d_cat_multi_stim_exp1","2022-4-5","15:13:9","25","75","3","9","10","40","30","120","14","19","[""Black or African-American"",""White""]","No","Female","2182865","null","null","","","","clear_screen","","","","","","","","","","","","","","","","","","","","","","","","","",""
"","","","","","canvas-keyboard-response","22","288265","0.0-12.0-0.2","2d_cat_multi_stim_exp1","2022-4-5","15:13:9","25","75","3","9","10","40","30","120","14","19","[""Black or African-American"",""White""]","No","Female","2182865","null","null","","","","fixation","","","","","","","","","","","","","","","","","","","","","","","","","",""
"","","","","","canvas-keyboard-response","23","288774","0.0-12.0-1.2","2d_cat_multi_stim_exp1","2022-4-5","15:13:9","25","75","3","9","10","40","30","120","14","19","[""Black or African-American"",""White""]","No","Female","2182865","null","null","","","","clear_screen","","","","","","","","","","","","","","","","","","","","","","","","","",""
"","","","","","canvas-keyboard-response","24","290601","0.0-12.0-2.2","2d_cat_multi_stim_exp1","2022-4-5","15:13:9","25","75","3","9","10","40","30","120","14","19","[""Black or African-American"",""White""]","No","Female","2182865","1816","i","learn","","","learn_trial","30","120","out","0","1","","","","","","","","","","","","","","","","","","","","",""
"","","","","","canvas-keyboard-response","25","291111","0.0-12.0-3.2","2d_cat_multi_stim_exp1","2022-4-5","15:13:9","25","75","3","9","10","40","30","120","14","19","[""Black or African-American"",""White""]","No","Female","2182865","null","null","learn_feedback","","","learn_feedback","30","120","out","","","","","","","","","","","","","","","","","","","","","","",""
"","","","","","canvas-keyboard-response","26","291171","0.0-12.0-4.2","2d_cat_multi_stim_exp1","2022-4-5","15:13:9","25","75","3","9","10","40","30","120","14","19","[""Black or African-American"",""White""]","No","Female","2182865","null","null","","","","clear_screen","","","","","","","","","","","","","","","","","","","","","","","","","",""
"","","","","","canvas-keyboard-response","27","291682","0.0-12.0-0.3","2d_cat_multi_stim_exp1","2022-4-5","15:13:9","25","75","3","9","10","40","30","120","14","19","[""Black or African-American"",""White""]","No","Female","2182865","null","null","","","","fixation","","","","","","","","","","","","","","","","","","","","","","","","","",""
"","","","","","canvas-keyboard-response","28","292191","0.0-12.0-1.3","2d_cat_multi_stim_exp1","2022-4-5","15:13:9","25","75","3","9","10","40","30","120","14","19","[""Black or African-American"",""White""]","No","Female","2182865","null","null","","","","clear_screen","","","","","","","","","","","","","","","","","","","","","","","","","",""
"","","","","","canvas-keyboard-response","29","296065","0.0-12.0-2.3","2d_cat_multi_stim_exp1","2022-4-5","15:13:9","25","75","3","9","10","40","30","120","14","19","[""Black or African-American"",""White""]","No","Female","2182865","3862","i","learn","","","learn_trial","25","75","in","0","0","","","","","","","","","","","","","","","","","","","","",""
"","","","","","canvas-keyboard-response","30","297076","0.0-12.0-3.3","2d_cat_multi_stim_exp1","2022-4-5","15:13:9","25","75","3","9","10","40","30","120","14","19","[""Black or African-American"",""White""]","No","Female","2182865","null","null","learn_feedback","","","learn_feedback","25","75","in","","","","","","","","","","","","","","","","","","","","","","",""
"","","","","","canvas-keyboard-response","31","297135","0.0-12.0-4.3","2d_cat_multi_stim_exp1","2022-4-5","15:13:9","25","75","3","9","10","40","30","120","14","19","[""Black or African-American"",""White""]","No","Female","2182865","null","null","","","","clear_screen","","","","","","","","","","","","","","","","","","","","","","","","","",""
"","","","","","canvas-keyboard-response","32","297645","0.0-12.0-0.4","2d_cat_multi_stim_exp1","2022-4-5","15:13:9","25","75","3","9","10","40","30","120","14","19","[""Black or African-American"",""White""]","No","Female","2182865","null","null","","","","fixation","","","","","","","","","","","","","","","","","","","","","","","","","",""
"","","","","","canvas-keyboard-response","33","298154","0.0-12.0-1.4","2d_cat_multi_stim_exp1","2022-4-5","15:13:9","25","75","3","9","10","40","30","120","14","19","[""Black or African-American"",""White""]","No","Female","2182865","null","null","","","","clear_screen","","","","","","","","","","","","","","","","","","","","","","","","","",""
"","","","","","canvas-keyboard-response","34","300857","0.0-12.0-2.4","2d_cat_multi_stim_exp1","2022-4-5","15:13:9","25","75","3","9","10","40","30","120","14","19","[""Black or African-American"",""White""]","No","Female","2182865","2694","i","learn","","","learn_trial","30","100","out","0","1","","","","","","","","","","","","","","","","","","","","",""
"","","","","","canvas-keyboard-response","35","301367","0.0-12.0-3.4","2d_cat_multi_stim_exp1","2022-4-5","15:13:9","25","75","3","9","10","40","30","120","14","19","[""Black or African-American"",""White""]","No","Female","2182865","null","null","learn_feedback","","","learn_feedback","30","100","out","","","","","","","","","","","","","","","","","","","","","","",""
"","","","","","canvas-keyboard-response","36","301426","0.0-12.0-4.4","2d_cat_multi_stim_exp1","2022-4-5","15:13:9","25","75","3","9","10","40","30","120","14","19","[""Black or African-American"",""White""]","No","Female","2182865","null","null","","","","clear_screen","","","","","","","","","","","","","","","","","","","","","","","","","",""
"","","","","","canvas-keyboard-response","37","301934","0.0-12.0-0.5","2d_cat_multi_stim_exp1","2022-4-5","15:13:9","25","75","3","9","10","40","30","120","14","19","[""Black or African-American"",""White""]","No","Female","2182865","null","null","","","","fixation","","","","","","","","","","","","","","","","","","","","","","","","","",""
"","","","","","canvas-keyboard-response","38","302445","0.0-12.0-1.5","2d_cat_multi_stim_exp1","2022-4-5","15:13:9","25","75","3","9","10","40","30","120","14","19","[""Black or African-American"",""White""]","No","Female","2182865","null","null","","","","clear_screen","","","","","","","","","","","","","","","","","","","","","","","","","",""
"","","","","","canvas-keyboard-response","39","303513","0.0-12.0-2.5","2d_cat_multi_stim_exp1","2022-4-5","15:13:9","25","75","3","9","10","40","30","120","14","19","[""Black or African-American"",""White""]","No","Female","2182865","1060","i","learn","","","learn_trial","30","40","out","0","1","","","","","","","","","","","","","","","","","","","","",""
"","","","","","canvas-keyboard-response","40","304022","0.0-12.0-3.5","2d_cat_multi_stim_exp1","2022-4-5","15:13:9","25","75","3","9","10","40","30","120","14","19","[""Black or African-American"",""White""]","No","Female","2182865","null","null","learn_feedback","","","learn_feedback","30","40","out","","","","","","","","","","","","","","","","","","","","","","",""
"","","","","","canvas-keyboard-response","41","304081","0.0-12.0-4.5","2d_cat_multi_stim_exp1","2022-4-5","15:13:9","25","75","3","9","10","40","30","120","14","19","[""Black or African-American"",""White""]","No","Female","2182865","null","null","","","","clear_screen","","","","","","","","","","","","","","","","","","","","","","","","","",""
"","","","","","canvas-keyboard-response","42","304590","0.0-12.0-0.6","2d_cat_multi_stim_exp1","2022-4-5","15:13:9","25","75","3","9","10","40","30","120","14","19","[""Black or African-American"",""White""]","No","Female","2182865","null","null","","","","fixation","","","","","","","","","","","","","","","","","","","","","","","","","",""
"","","","","","canvas-keyboard-response","43","305100","0.0-12.0-1.6","2d_cat_multi_stim_exp1","2022-4-5","15:13:9","25","75","3","9","10","40","30","120","14","19","[""Black or African-American"",""White""]","No","Female","2182865","null","null","","","","clear_screen","","","","","","","","","","","","","","","","","","","","","","","","","",""
"","","","","","canvas-keyboard-response","44","306090","0.0-12.0-2.6","2d_cat_multi_stim_exp1","2022-4-5","15:13:9","25","75","3","9","10","40","30","120","14","19","[""Black or African-American"",""White""]","No","Female","2182865","979","i","learn","","","learn_trial","13.3333","30","out","0","1","","","","","","","","","","","","","","","","","","","","",""
"","","","","","canvas-keyboard-response","45","306601","0.0-12.0-3.6","2d_cat_multi_stim_exp1","2022-4-5","15:13:9","25","75","3","9","10","40","30","120","14","19","[""Black or African-American"",""White""]","No","Female","2182865","null","null","learn_feedback","","","learn_feedback","13.3333","30","out","","","","","","","","","","","","","","","","","","","","","","",""
"","","","","","canvas-keyboard-response","46","306662","0.0-12.0-4.6","2d_cat_multi_stim_exp1","2022-4-5","15:13:9","25","75","3","9","10","40","30","120","14","19","[""Black or African-American"",""White""]","No","Female","2182865","null","null","","","","clear_screen","","","","","","","","","","","","","","","","","","","","","","","","","",""
"","","","","","canvas-keyboard-response","47","307172","0.0-12.0-0.7","2d_cat_multi_stim_exp1","2022-4-5","15:13:9","25","75","3","9","10","40","30","120","14","19","[""Black or African-American"",""White""]","No","Female","2182865","null","null","","","","fixation","","","","","","","","","","","","","","","","","","","","","","","","","",""
"","","","","","canvas-keyboard-response","48","307683","0.0-12.0-1.7","2d_cat_multi_stim_exp1","2022-4-5","15:13:9","25","75","3","9","10","40","30","120","14","19","[""Black or African-American"",""White""]","No","Female","2182865","null","null","","","","clear_screen","","","","","","","","","","","","","","","","","","","","","","","","","",""
"","","","","","canvas-keyboard-response","49","310993","0.0-12.0-2.7","2d_cat_multi_stim_exp1","2022-4-5","15:13:9","25","75","3","9","10","40","30","120","14","19","[""Black or African-American"",""White""]","No","Female","2182865","3301","i","learn","","","learn_trial","13.3333","80","out","0","1","","","","","","","","","","","","","","","","","","","","",""
"","","","","","canvas-keyboard-response","50","311503","0.0-12.0-3.7","2d_cat_multi_stim_exp1","2022-4-5","15:13:9","25","75","3","9","10","40","30","120","14","19","[""Black or African-American"",""White""]","No","Female","2182865","null","null","learn_feedback","","","learn_feedback","13.3333","80","out","","","","","","","","","","","","","","","","","","","","","","",""
"","","","","","canvas-keyboard-response","51","311563","0.0-12.0-4.7","2d_cat_multi_stim_exp1","2022-4-5","15:13:9","25","75","3","9","10","40","30","120","14","19","[""Black or African-American"",""White""]","No","Female","2182865","null","null","","","","clear_screen","","","","","","","","","","","","","","","","","","","","","","","","","",""
"","","","","","canvas-keyboard-response","52","312074","0.0-12.0-0.8","2d_cat_multi_stim_exp1","2022-4-5","15:13:9","25","75","3","9","10","40","30","120","14","19","[""Black or African-American"",""White""]","No","Female","2182865","null","null","","","","fixation","","","","","","","","","","","","","","","","","","","","","","","","","",""
"","","","","","canvas-keyboard-response","53","312583","0.0-12.0-1.8","2d_cat_multi_stim_exp1","2022-4-5","15:13:9","25","75","3","9","10","40","30","120","14","19","[""Black or African-American"",""White""]","No","Female","2182865","null","null","","","","clear_screen","","","","","","","","","","","","","","","","","","","","","","","","","",""
"","","","","","canvas-keyboard-response","54","314890","0.0-12.0-2.8","2d_cat_multi_stim_exp1","2022-4-5","15:13:9","25","75","3","9","10","40","30","120","14","19","[""Black or African-American"",""White""]","No","Female","2182865","2296","u","learn","","","learn_trial","22.2971","71.095","in","1","1","","","","","","","","","","","","","","","","","","","","",""
"","","","","","canvas-keyboard-response","55","315400","0.0-12.0-3.8","2d_cat_multi_stim_exp1","2022-4-5","15:13:9","25","75","3","9","10","40","30","120","14","19","[""Black or African-American"",""White""]","No","Female","2182865","null","null","learn_feedback","","","learn_feedback","22.2971","71.095","in","","","","","","","","","","","","","","","","","","","","","","",""
"","","","","","canvas-keyboard-response","56","315460","0.0-12.0-4.8","2d_cat_multi_stim_exp1","2022-4-5","15:13:9","25","75","3","9","10","40","30","120","14","19","[""Black or African-American"",""White""]","No","Female","2182865","null","null","","","","clear_screen","","","","","","","","","","","","","","","","","","","","","","","","","",""
"","","","","","canvas-keyboard-response","57","315969","0.0-12.0-0.9","2d_cat_multi_stim_exp1","2022-4-5","15:13:9","25","75","3","9","10","40","30","120","14","19","[""Black or African-American"",""White""]","No","Female","2182865","null","null","","","","fixation","","","","","","","","","","","","","","","","","","","","","","","","","",""
"","","","","","canvas-keyboard-response","58","316479","0.0-12.0-1.9","2d_cat_multi_stim_exp1","2022-4-5","15:13:9","25","75","3","9","10","40","30","120","14","19","[""Black or African-American"",""White""]","No","Female","2182865","null","null","","","","clear_screen","","","","","","","","","","","","","","","","","","","","","","","","","",""
"","","","","","canvas-keyboard-response","59","318289","0.0-12.0-2.9","2d_cat_multi_stim_exp1","2022-4-5","15:13:9","25","75","3","9","10","40","30","120","14","19","[""Black or African-American"",""White""]","No","Female","2182865","1800","i","learn","","","learn_trial","26.6667","50","out","0","1","","","","","","","","","","","","","","","","","","","","",""
"","","","","","canvas-keyboard-response","60","318802","0.0-12.0-3.9","2d_cat_multi_stim_exp1","2022-4-5","15:13:9","25","75","3","9","10","40","30","120","14","19","[""Black or African-American"",""White""]","No","Female","2182865","null","null","learn_feedback","","","learn_feedback","26.6667","50","out","","","","","","","","","","","","","","","","","","","","","","",""
"","","","","","canvas-keyboard-response","61","318861","0.0-12.0-4.9","2d_cat_multi_stim_exp1","2022-4-5","15:13:9","25","75","3","9","10","40","30","120","14","19","[""Black or African-American"",""White""]","No","Female","2182865","null","null","","","","clear_screen","","","","","","","","","","","","","","","","","","","","","","","","","",""
"","","","","","canvas-keyboard-response","62","319370","0.0-12.0-0.10","2d_cat_multi_stim_exp1","2022-4-5","15:13:9","25","75","3","9","10","40","30","120","14","19","[""Black or African-American"",""White""]","No","Female","2182865","null","null","","","","fixation","","","","","","","","","","","","","","","","","","","","","","","","","",""
"","","","","","canvas-keyboard-response","63","319879","0.0-12.0-1.10","2d_cat_multi_stim_exp1","2022-4-5","15:13:9","25","75","3","9","10","40","30","120","14","19","[""Black or African-American"",""White""]","No","Female","2182865","null","null","","","","clear_screen","","","","","","","","","","","","","","","","","","","","","","","","","",""
"","","","","","canvas-keyboard-response","64","321505","0.0-12.0-2.10","2d_cat_multi_stim_exp1","2022-4-5","15:13:9","25","75","3","9","10","40","30","120","14","19","[""Black or African-American"",""White""]","No","Female","2182865","1616","u","learn","","","learn_trial","25","75","in","1","1","","","","","","","","","","","","","","","","","","","","",""
"","","","","","canvas-keyboard-response","65","322016","0.0-12.0-3.10","2d_cat_multi_stim_exp1","2022-4-5","15:13:9","25","75","3","9","10","40","30","120","14","19","[""Black or African-American"",""White""]","No","Female","2182865","null","null","learn_feedback","","","learn_feedback","25","75","in","","","","","","","","","","","","","","","","","","","","","","",""
"","","","","","canvas-keyboard-response","66","322074","0.0-12.0-4.10","2d_cat_multi_stim_exp1","2022-4-5","15:13:9","25","75","3","9","10","40","30","120","14","19","[""Black or African-American"",""White""]","No","Female","2182865","null","null","","","","clear_screen","","","","","","","","","","","","","","","","","","","","","","","","","",""
"","","","","","canvas-keyboard-response","67","322584","0.0-12.0-0.11","2d_cat_multi_stim_exp1","2022-4-5","15:13:9","25","75","3","9","10","40","30","120","14","19","[""Black or African-American"",""White""]","No","Female","2182865","null","null","","","","fixation","","","","","","","","","","","","","","","","","","","","","","","","","",""
"","","","","","canvas-keyboard-response","68","323094","0.0-12.0-1.11","2d_cat_multi_stim_exp1","2022-4-5","15:13:9","25","75","3","9","10","40","30","120","14","19","[""Black or African-American"",""White""]","No","Female","2182865","null","null","","","","clear_screen","","","","","","","","","","","","","","","","","","","","","","","","","",""
"","","","","","canvas-keyboard-response","69","326768","0.0-12.0-2.11","2d_cat_multi_stim_exp1","2022-4-5","15:13:9","25","75","3","9","10","40","30","120","14","19","[""Black or African-American"",""White""]","No","Female","2182865","3666","i","learn","","","learn_trial","27.5753","79.6161","in","0","0","","","","","","","","","","","","","","","","","","","","",""
"","","","","","canvas-keyboard-response","70","327779","0.0-12.0-3.11","2d_cat_multi_stim_exp1","2022-4-5","15:13:9","25","75","3","9","10","40","30","120","14","19","[""Black or African-American"",""White""]","No","Female","2182865","null","null","learn_feedback","","","learn_feedback","27.5753","79.6161","in","","","","","","","","","","","","","","","","","","","","","","",""
"","","","","","canvas-keyboard-response","71","327837","0.0-12.0-4.11","2d_cat_multi_stim_exp1","2022-4-5","15:13:9","25","75","3","9","10","40","30","120","14","19","[""Black or African-American"",""White""]","No","Female","2182865","null","null","","","","clear_screen","","","","","","","","","","","","","","","","","","","","","","","","","",""
"","","","","","canvas-keyboard-response","72","328346","0.0-12.0-0.12","2d_cat_multi_stim_exp1","2022-4-5","15:13:9","25","75","3","9","10","40","30","120","14","19","[""Black or African-American"",""White""]","No","Female","2182865","null","null","","","","fixation","","","","","","","","","","","","","","","","","","","","","","","","","",""
"","","","","","canvas-keyboard-response","73","328855","0.0-12.0-1.12","2d_cat_multi_stim_exp1","2022-4-5","15:13:9","25","75","3","9","10","40","30","120","14","19","[""Black or African-American"",""White""]","No","Female","2182865","null","null","","","","clear_screen","","","","","","","","","","","","","","","","","","","","","","","","","",""
"","","","","","canvas-keyboard-response","74","330296","0.0-12.0-2.12","2d_cat_multi_stim_exp1","2022-4-5","15:13:9","25","75","3","9","10","40","30","120","14","19","[""Black or African-American"",""White""]","No","Female","2182865","1432","u","learn","","","learn_trial","25","75","in","1","1","","","","","","","","","","","","","","","","","","","","",""
"","","","","","canvas-keyboard-response","75","330806","0.0-12.0-3.12","2d_cat_multi_stim_exp1","2022-4-5","15:13:9","25","75","3","9","10","40","30","120","14","19","[""Black or African-American"",""White""]","No","Female","2182865","null","null","learn_feedback","","","learn_feedback","25","75","in","","","","","","","","","","","","","","","","","","","","","","",""
"","","","","","canvas-keyboard-response","76","330865","0.0-12.0-4.12","2d_cat_multi_stim_exp1","2022-4-5","15:13:9","25","75","3","9","10","40","30","120","14","19","[""Black or African-American"",""White""]","No","Female","2182865","null","null","","","","clear_screen","","","","","","","","","","","","","","","","","","","","","","","","","",""
"","","","","","canvas-keyboard-response","77","331374","0.0-12.0-0.13","2d_cat_multi_stim_exp1","2022-4-5","15:13:9","25","75","3","9","10","40","30","120","14","19","[""Black or African-American"",""White""]","No","Female","2182865","null","null","","","","fixation","","","","","","","","","","","","","","","","","","","","","","","","","",""
"","","","","","canvas-keyboard-response","78","331884","0.0-12.0-1.13","2d_cat_multi_stim_exp1","2022-4-5","15:13:9","25","75","3","9","10","40","30","120","14","19","[""Black or African-American"",""White""]","No","Female","2182865","null","null","","","","clear_screen","","","","","","","","","","","","","","","","","","","","","","","","","",""
"","","","","","canvas-keyboard-response","79","334320","0.0-12.0-2.13","2d_cat_multi_stim_exp1","2022-4-5","15:13:9","25","75","3","9","10","40","30","120","14","19","[""Black or African-American"",""White""]","No","Female","2182865","2427","i","learn","","","learn_trial","25","93","in","0","0","","","","","","","","","","","","","","","","","","","","",""
"","","","","","canvas-keyboard-response","80","335330","0.0-12.0-3.13","2d_cat_multi_stim_exp1","2022-4-5","15:13:9","25","75","3","9","10","40","30","120","14","19","[""Black or African-American"",""White""]","No","Female","2182865","null","null","learn_feedback","","","learn_feedback","25","93","in","","","","","","","","","","","","","","","","","","","","","","",""
"","","","","","canvas-keyboard-response","81","335389","0.0-12.0-4.13","2d_cat_multi_stim_exp1","2022-4-5","15:13:9","25","75","3","9","10","40","30","120","14","19","[""Black or African-American"",""White""]","No","Female","2182865","null","null","","","","clear_screen","","","","","","","","","","","","","","","","","","","","","","","","","",""
"","","","","","canvas-keyboard-response","82","335898","0.0-12.0-0.14","2d_cat_multi_stim_exp1","2022-4-5","15:13:9","25","75","3","9","10","40","30","120","14","19","[""Black or African-American"",""White""]","No","Female","2182865","null","null","","","","fixation","","","","","","","","","","","","","","","","","","","","","","","","","",""
"","","","","","canvas-keyboard-response","83","336408","0.0-12.0-1.14","2d_cat_multi_stim_exp1","2022-4-5","15:13:9","25","75","3","9","10","40","30","120","14","19","[""Black or African-American"",""White""]","No","Female","2182865","null","null","","","","clear_screen","","","","","","","","","","","","","","","","","","","","","","","","","",""
"","","","","","canvas-keyboard-response","84","337832","0.0-12.0-2.14","2d_cat_multi_stim_exp1","2022-4-5","15:13:9","25","75","3","9","10","40","30","120","14","19","[""Black or African-American"",""White""]","No","Female","2182865","1417","i","learn","","","learn_trial","36.6667","40","out","0","1","","","","","","","","","","","","","","","","","","","","",""
"","","","","","canvas-keyboard-response","85","338342","0.0-12.0-3.14","2d_cat_multi_stim_exp1","2022-4-5","15:13:9","25","75","3","9","10","40","30","120","14","19","[""Black or African-American"",""White""]","No","Female","2182865","null","null","learn_feedback","","","learn_feedback","36.6667","40","out","","","","","","","","","","","","","","","","","","","","","","",""
"","","","","","canvas-keyboard-response","86","338401","0.0-12.0-4.14","2d_cat_multi_stim_exp1","2022-4-5","15:13:9","25","75","3","9","10","40","30","120","14","19","[""Black or African-American"",""White""]","No","Female","2182865","null","null","","","","clear_screen","","","","","","","","","","","","","","","","","","","","","","","","","",""
"","","","","","canvas-keyboard-response","87","338910","0.0-12.0-0.15","2d_cat_multi_stim_exp1","2022-4-5","15:13:9","25","75","3","9","10","40","30","120","14","19","[""Black or African-American"",""White""]","No","Female","2182865","null","null","","","","fixation","","","","","","","","","","","","","","","","","","","","","","","","","",""
"","","","","","canvas-keyboard-response","88","339420","0.0-12.0-1.15","2d_cat_multi_stim_exp1","2022-4-5","15:13:9","25","75","3","9","10","40","30","120","14","19","[""Black or African-American"",""White""]","No","Female","2182865","null","null","","","","clear_screen","","","","","","","","","","","","","","","","","","","","","","","","","",""
"","","","","","canvas-keyboard-response","89","342904","0.0-12.0-2.15","2d_cat_multi_stim_exp1","2022-4-5","15:13:9","25","75","3","9","10","40","30","120","14","19","[""Black or African-American"",""White""]","No","Female","2182865","3475","i","learn","","","learn_trial","25.9271","83.5595","in","0","0","","","","","","","","","","","","","","","","","","","","",""
"","","","","","canvas-keyboard-response","90","343915","0.0-12.0-3.15","2d_cat_multi_stim_exp1","2022-4-5","15:13:9","25","75","3","9","10","40","30","120","14","19","[""Black or African-American"",""White""]","No","Female","2182865","null","null","learn_feedback","","","learn_feedback","25.9271","83.5595","in","","","","","","","","","","","","","","","","","","","","","","",""
"","","","","","canvas-keyboard-response","91","343977","0.0-12.0-4.15","2d_cat_multi_stim_exp1","2022-4-5","15:13:9","25","75","3","9","10","40","30","120","14","19","[""Black or African-American"",""White""]","No","Female","2182865","null","null","","","","clear_screen","","","","","","","","","","","","","","","","","","","","","","","","","",""
"","","","","","canvas-keyboard-response","92","344488","0.0-12.0-0.16","2d_cat_multi_stim_exp1","2022-4-5","15:13:9","25","75","3","9","10","40","30","120","14","19","[""Black or African-American"",""White""]","No","Female","2182865","null","null","","","","fixation","","","","","","","","","","","","","","","","","","","","","","","","","",""
"","","","","","canvas-keyboard-response","93","344999","0.0-12.0-1.16","2d_cat_multi_stim_exp1","2022-4-5","15:13:9","25","75","3","9","10","40","30","120","14","19","[""Black or African-American"",""White""]","No","Female","2182865","null","null","","","","clear_screen","","","","","","","","","","","","","","","","","","","","","","","","","",""
"","","","","","canvas-keyboard-response","94","347617","0.0-12.0-2.16","2d_cat_multi_stim_exp1","2022-4-5","15:13:9","25","75","3","9","10","40","30","120","14","19","[""Black or African-American"",""White""]","No","Female","2182865","2605","i","learn","","","learn_trial","30","50","out","0","1","","","","","","","","","","","","","","","","","","","","",""
"","","","","","canvas-keyboard-response","95","348130","0.0-12.0-3.16","2d_cat_multi_stim_exp1","2022-4-5","15:13:9","25","75","3","9","10","40","30","120","14","19","[""Black or African-American"",""White""]","No","Female","2182865","null","null","learn_feedback","","","learn_feedback","30","50","out","","","","","","","","","","","","","","","","","","","","","","",""
"","","","","","canvas-keyboard-response","96","348191","0.0-12.0-4.16","2d_cat_multi_stim_exp1","2022-4-5","15:13:9","25","75","3","9","10","40","30","120","14","19","[""Black or African-American"",""White""]","No","Female","2182865","null","null","","","","clear_screen","","","","","","","","","","","","","","","","","","","","","","","","","",""
"","","","","","canvas-keyboard-response","97","348701","0.0-12.0-0.17","2d_cat_multi_stim_exp1","2022-4-5","15:13:9","25","75","3","9","10","40","30","120","14","19","[""Black or African-American"",""White""]","No","Female","2182865","null","null","","","","fixation","","","","","","","","","","","","","","","","","","","","","","","","","",""
"","","","","","canvas-keyboard-response","98","349213","0.0-12.0-1.17","2d_cat_multi_stim_exp1","2022-4-5","15:13:9","25","75","3","9","10","40","30","120","14","19","[""Black or African-American"",""White""]","No","Female","2182865","null","null","","","","clear_screen","","","","","","","","","","","","","","","","","","","","","","","","","",""
"","","","","","canvas-keyboard-response","99","350240","0.0-12.0-2.17","2d_cat_multi_stim_exp1","2022-4-5","15:13:9","25","75","3","9","10","40","30","120","14","19","[""Black or African-American"",""White""]","No","Female","2182865","1017","u","learn","","","learn_trial","25","75","in","1","1","","","","","","","","","","","","","","","","","","","","",""
"","","","","","canvas-keyboard-response","100","350750","0.0-12.0-3.17","2d_cat_multi_stim_exp1","2022-4-5","15:13:9","25","75","3","9","10","40","30","120","14","19","[""Black or African-American"",""White""]","No","Female","2182865","null","null","learn_feedback","","","learn_feedback","25","75","in","","","","","","","","","","","","","","","","","","","","","","",""
"","","","","","canvas-keyboard-response","101","350811","0.0-12.0-4.17","2d_cat_multi_stim_exp1","2022-4-5","15:13:9","25","75","3","9","10","40","30","120","14","19","[""Black or African-American"",""White""]","No","Female","2182865","null","null","","","","clear_screen","","","","","","","","","","","","","","","","","","","","","","","","","",""
"","","","","","canvas-keyboard-response","102","351320","0.0-12.0-0.18","2d_cat_multi_stim_exp1","2022-4-5","15:13:9","25","75","3","9","10","40","30","120","14","19","[""Black or African-American"",""White""]","No","Female","2182865","null","null","","","","fixation","","","","","","","","","","","","","","","","","","","","","","","","","",""
"","","","","","canvas-keyboard-response","103","351831","0.0-12.0-1.18","2d_cat_multi_stim_exp1","2022-4-5","15:13:9","25","75","3","9","10","40","30","120","14","19","[""Black or African-American"",""White""]","No","Female","2182865","null","null","","","","clear_screen","","","","","","","","","","","","","","","","","","","","","","","","","",""
"","","","","","canvas-keyboard-response","104","354680","0.0-12.0-2.18","2d_cat_multi_stim_exp1","2022-4-5","15:13:9","25","75","3","9","10","40","30","120","14","19","[""Black or African-American"",""White""]","No","Female","2182865","2840","i","learn","","","learn_trial","24.3324","66.2256","in","0","0","","","","","","","","","","","","","","","","","","","","",""
"","","","","","canvas-keyboard-response","105","355691","0.0-12.0-3.18","2d_cat_multi_stim_exp1","2022-4-5","15:13:9","25","75","3","9","10","40","30","120","14","19","[""Black or African-American"",""White""]","No","Female","2182865","null","null","learn_feedback","","","learn_feedback","24.3324","66.2256","in","","","","","","","","","","","","","","","","","","","","","","",""
"","","","","","canvas-keyboard-response","106","355750","0.0-12.0-4.18","2d_cat_multi_stim_exp1","2022-4-5","15:13:9","25","75","3","9","10","40","30","120","14","19","[""Black or African-American"",""White""]","No","Female","2182865","null","null","","","","clear_screen","","","","","","","","","","","","","","","","","","","","","","","","","",""
"","","","","","canvas-keyboard-response","107","356260","0.0-12.0-0.19","2d_cat_multi_stim_exp1","2022-4-5","15:13:9","25","75","3","9","10","40","30","120","14","19","[""Black or African-American"",""White""]","No","Female","2182865","null","null","","","","fixation","","","","","","","","","","","","","","","","","","","","","","","","","",""
"","","","","","canvas-keyboard-response","108","356770","0.0-12.0-1.19","2d_cat_multi_stim_exp1","2022-4-5","15:13:9","25","75","3","9","10","40","30","120","14","19","[""Black or African-American"",""White""]","No","Female","2182865","null","null","","","","clear_screen","","","","","","","","","","","","","","","","","","","","","","","","","",""
"","","","","","canvas-keyboard-response","109","358104","0.0-12.0-2.19","2d_cat_multi_stim_exp1","2022-4-5","15:13:9","25","75","3","9","10","40","30","120","14","19","[""Black or African-American"",""White""]","No","Female","2182865","1325","u","learn","","","learn_trial","26.8705","67.9635","in","1","1","","","","","","","","","","","","","","","","","","","","",""
"","","","","","canvas-keyboard-response","110","358613","0.0-12.0-3.19","2d_cat_multi_stim_exp1","2022-4-5","15:13:9","25","75","3","9","10","40","30","120","14","19","[""Black or African-American"",""White""]","No","Female","2182865","null","null","learn_feedback","","","learn_feedback","26.8705","67.9635","in","","","","","","","","","","","","","","","","","","","","","","",""
"","","","","","canvas-keyboard-response","111","358672","0.0-12.0-4.19","2d_cat_multi_stim_exp1","2022-4-5","15:13:9","25","75","3","9","10","40","30","120","14","19","[""Black or African-American"",""White""]","No","Female","2182865","null","null","","","","clear_screen","","","","","","","","","","","","","","","","","","","","","","","","","",""
"","","","","","canvas-keyboard-response","112","359180","0.0-12.0-0.20","2d_cat_multi_stim_exp1","2022-4-5","15:13:9","25","75","3","9","10","40","30","120","14","19","[""Black or African-American"",""White""]","No","Female","2182865","null","null","","","","fixation","","","","","","","","","","","","","","","","","","","","","","","","","",""
"","","","","","canvas-keyboard-response","113","359690","0.0-12.0-1.20","2d_cat_multi_stim_exp1","2022-4-5","15:13:9","25","75","3","9","10","40","30","120","14","19","[""Black or African-American"",""White""]","No","Female","2182865","null","null","","","","clear_screen","","","","","","","","","","","","","","","","","","","","","","","","","",""
"","","","","","canvas-keyboard-response","114","360385","0.0-12.0-2.20","2d_cat_multi_stim_exp1","2022-4-5","15:13:9","25","75","3","9","10","40","30","120","14","19","[""Black or African-American"",""White""]","No","Female","2182865","686","i","learn","","","learn_trial","10","30","out","0","1","","","","","","","","","","","","","","","","","","","","",""
"","","","","","canvas-keyboard-response","115","360894","0.0-12.0-3.20","2d_cat_multi_stim_exp1","2022-4-5","15:13:9","25","75","3","9","10","40","30","120","14","19","[""Black or African-American"",""White""]","No","Female","2182865","null","null","learn_feedback","","","learn_feedback","10","30","out","","","","","","","","","","","","","","","","","","","","","","",""
"","","","","","canvas-keyboard-response","116","360953","0.0-12.0-4.20","2d_cat_multi_stim_exp1","2022-4-5","15:13:9","25","75","3","9","10","40","30","120","14","19","[""Black or African-American"",""White""]","No","Female","2182865","null","null","","","","clear_screen","","","","","","","","","","","","","","","","","","","","","","","","","",""
"","","","","","canvas-keyboard-response","117","361464","0.0-12.0-0.21","2d_cat_multi_stim_exp1","2022-4-5","15:13:9","25","75","3","9","10","40","30","120","14","19","[""Black or African-American"",""White""]","No","Female","2182865","null","null","","","","fixation","","","","","","","","","","","","","","","","","","","","","","","","","",""
"","","","","","canvas-keyboard-response","118","361973","0.0-12.0-1.21","2d_cat_multi_stim_exp1","2022-4-5","15:13:9","25","75","3","9","10","40","30","120","14","19","[""Black or African-American"",""White""]","No","Female","2182865","null","null","","","","clear_screen","","","","","","","","","","","","","","","","","","","","","","","","","",""
"","","","","","canvas-keyboard-response","119","365224","0.0-12.0-2.21","2d_cat_multi_stim_exp1","2022-4-5","15:13:9","25","75","3","9","10","40","30","120","14","19","[""Black or African-American"",""White""]","No","Female","2182865","3241","u","learn","","","learn_trial","24.8654","83.9909","in","1","1","","","","","","","","","","","","","","","","","","","","",""
"","","","","","canvas-keyboard-response","120","365734","0.0-12.0-3.21","2d_cat_multi_stim_exp1","2022-4-5","15:13:9","25","75","3","9","10","40","30","120","14","19","[""Black or African-American"",""White""]","No","Female","2182865","null","null","learn_feedback","","","learn_feedback","24.8654","83.9909","in","","","","","","","","","","","","","","","","","","","","","","",""
"","","","","","canvas-keyboard-response","121","365794","0.0-12.0-4.21","2d_cat_multi_stim_exp1","2022-4-5","15:13:9","25","75","3","9","10","40","30","120","14","19","[""Black or African-American"",""White""]","No","Female","2182865","null","null","","","","clear_screen","","","","","","","","","","","","","","","","","","","","","","","","","",""
"","","","","","canvas-keyboard-response","122","366303","0.0-12.0-0.22","2d_cat_multi_stim_exp1","2022-4-5","15:13:9","25","75","3","9","10","40","30","120","14","19","[""Black or African-American"",""White""]","No","Female","2182865","null","null","","","","fixation","","","","","","","","","","","","","","","","","","","","","","","","","",""
"","","","","","canvas-keyboard-response","123","366812","0.0-12.0-1.22","2d_cat_multi_stim_exp1","2022-4-5","15:13:9","25","75","3","9","10","40","30","120","14","19","[""Black or African-American"",""White""]","No","Female","2182865","null","null","","","","clear_screen","","","","","","","","","","","","","","","","","","","","","","","","","",""
"","","","","","canvas-keyboard-response","124","367776","0.0-12.0-2.22","2d_cat_multi_stim_exp1","2022-4-5","15:13:9","25","75","3","9","10","40","30","120","14","19","[""Black or African-American"",""White""]","No","Female","2182865","954","u","learn","","","learn_trial","25","75","in","1","1","","","","","","","","","","","","","","","","","","","","",""
"","","","","","canvas-keyboard-response","125","368286","0.0-12.0-3.22","2d_cat_multi_stim_exp1","2022-4-5","15:13:9","25","75","3","9","10","40","30","120","14","19","[""Black or African-American"",""White""]","No","Female","2182865","null","null","learn_feedback","","","learn_feedback","25","75","in","","","","","","","","","","","","","","","","","","","","","","",""
"","","","","","canvas-keyboard-response","126","368345","0.0-12.0-4.22","2d_cat_multi_stim_exp1","2022-4-5","15:13:9","25","75","3","9","10","40","30","120","14","19","[""Black or African-American"",""White""]","No","Female","2182865","null","null","","","","clear_screen","","","","","","","","","","","","","","","","","","","","","","","","","",""
"","","","","","canvas-keyboard-response","127","368854","0.0-12.0-0.23","2d_cat_multi_stim_exp1","2022-4-5","15:13:9","25","75","3","9","10","40","30","120","14","19","[""Black or African-American"",""White""]","No","Female","2182865","null","null","","","","fixation","","","","","","","","","","","","","","","","","","","","","","","","","",""
"","","","","","canvas-keyboard-response","128","369364","0.0-12.0-1.23","2d_cat_multi_stim_exp1","2022-4-5","15:13:9","25","75","3","9","10","40","30","120","14","19","[""Black or African-American"",""White""]","No","Female","2182865","null","null","","","","clear_screen","","","","","","","","","","","","","","","","","","","","","","","","","",""
"","","","","","canvas-keyboard-response","129","370064","0.0-12.0-2.23","2d_cat_multi_stim_exp1","2022-4-5","15:13:9","25","75","3","9","10","40","30","120","14","19","[""Black or African-American"",""White""]","No","Female","2182865","691","i","learn","","","learn_trial","10","50","out","0","1","","","","","","","","","","","","","","","","","","","","",""
"","","","","","canvas-keyboard-response","130","370574","0.0-12.0-3.23","2d_cat_multi_stim_exp1","2022-4-5","15:13:9","25","75","3","9","10","40","30","120","14","19","[""Black or African-American"",""White""]","No","Female","2182865","null","null","learn_feedback","","","learn_feedback","10","50","out","","","","","","","","","","","","","","","","","","","","","","",""
"","","","","","canvas-keyboard-response","131","370634","0.0-12.0-4.23","2d_cat_multi_stim_exp1","2022-4-5","15:13:9","25","75","3","9","10","40","30","120","14","19","[""Black or African-American"",""White""]","No","Female","2182865","null","null","","","","clear_screen","","","","","","","","","","","","","","","","","","","","","","","","","",""
"","","","","","canvas-keyboard-response","132","371142","0.0-12.0-0.24","2d_cat_multi_stim_exp1","2022-4-5","15:13:9","25","75","3","9","10","40","30","120","14","19","[""Black or African-American"",""White""]","No","Female","2182865","null","null","","","","fixation","","","","","","","","","","","","","","","","","","","","","","","","","",""
"","","","","","canvas-keyboard-response","133","371653","0.0-12.0-1.24","2d_cat_multi_stim_exp1","2022-4-5","15:13:9","25","75","3","9","10","40","30","120","14","19","[""Black or African-American"",""White""]","No","Female","2182865","null","null","","","","clear_screen","","","","","","","","","","","","","","","","","","","","","","","","","",""
"","","","","","canvas-keyboard-response","134","373296","0.0-12.0-2.24","2d_cat_multi_stim_exp1","2022-4-5","15:13:9","25","75","3","9","10","40","30","120","14","19","[""Black or African-American"",""White""]","No","Female","2182865","1634","i","learn","","","learn_trial","25","57","in","0","0","","","","","","","","","","","","","","","","","","","","",""
"","","","","","canvas-keyboard-response","135","374305","0.0-12.0-3.24","2d_cat_multi_stim_exp1","2022-4-5","15:13:9","25","75","3","9","10","40","30","120","14","19","[""Black or African-American"",""White""]","No","Female","2182865","null","null","learn_feedback","","","learn_feedback","25","57","in","","","","","","","","","","","","","","","","","","","","","","",""
"","","","","","canvas-keyboard-response","136","374364","0.0-12.0-4.24","2d_cat_multi_stim_exp1","2022-4-5","15:13:9","25","75","3","9","10","40","30","120","14","19","[""Black or African-American"",""White""]","No","Female","2182865","null","null","","","","clear_screen","","","","","","","","","","","","","","","","","","","","","","","","","",""
"","","","","","canvas-keyboard-response","137","374873","0.0-12.0-0.25","2d_cat_multi_stim_exp1","2022-4-5","15:13:9","25","75","3","9","10","40","30","120","14","19","[""Black or African-American"",""White""]","No","Female","2182865","null","null","","","","fixation","","","","","","","","","","","","","","","","","","","","","","","","","",""
"","","","","","canvas-keyboard-response","138","375382","0.0-12.0-1.25","2d_cat_multi_stim_exp1","2022-4-5","15:13:9","25","75","3","9","10","40","30","120","14","19","[""Black or African-American"",""White""]","No","Female","2182865","null","null","","","","clear_screen","","","","","","","","","","","","","","","","","","","","","","","","","",""
"","","","","","canvas-keyboard-response","139","377016","0.0-12.0-2.25","2d_cat_multi_stim_exp1","2022-4-5","15:13:9","25","75","3","9","10","40","30","120","14","19","[""Black or African-American"",""White""]","No","Female","2182865","1624","u","learn","","","learn_trial","22.0121","74.1932","in","1","1","","","","","","","","","","","","","","","","","","","","",""
"","","","","","canvas-keyboard-response","140","377525","0.0-12.0-3.25","2d_cat_multi_stim_exp1","2022-4-5","15:13:9","25","75","3","9","10","40","30","120","14","19","[""Black or African-American"",""White""]","No","Female","2182865","null","null","learn_feedback","","","learn_feedback","22.0121","74.1932","in","","","","","","","","","","","","","","","","","","","","","","",""
"","","","","","canvas-keyboard-response","141","377584","0.0-12.0-4.25","2d_cat_multi_stim_exp1","2022-4-5","15:13:9","25","75","3","9","10","40","30","120","14","19","[""Black or African-American"",""White""]","No","Female","2182865","null","null","","","","clear_screen","","","","","","","","","","","","","","","","","","","","","","","","","",""
"","","","","","canvas-keyboard-response","142","378093","0.0-12.0-0.26","2d_cat_multi_stim_exp1","2022-4-5","15:13:9","25","75","3","9","10","40","30","120","14","19","[""Black or African-American"",""White""]","No","Female","2182865","null","null","","","","fixation","","","","","","","","","","","","","","","","","","","","","","","","","",""
"","","","","","canvas-keyboard-response","143","378602","0.0-12.0-1.26","2d_cat_multi_stim_exp1","2022-4-5","15:13:9","25","75","3","9","10","40","30","120","14","19","[""Black or African-American"",""White""]","No","Female","2182865","null","null","","","","clear_screen","","","","","","","","","","","","","","","","","","","","","","","","","",""
"","","","","","canvas-keyboard-response","144","379376","0.0-12.0-2.26","2d_cat_multi_stim_exp1","2022-4-5","15:13:9","25","75","3","9","10","40","30","120","14","19","[""Black or African-American"",""White""]","No","Female","2182865","764","u","learn","","","learn_trial","22.0121","75.8068","in","1","1","","","","","","","","","","","","","","","","","","","","",""
"","","","","","canvas-keyboard-response","145","379885","0.0-12.0-3.26","2d_cat_multi_stim_exp1","2022-4-5","15:13:9","25","75","3","9","10","40","30","120","14","19","[""Black or African-American"",""White""]","No","Female","2182865","null","null","learn_feedback","","","learn_feedback","22.0121","75.8068","in","","","","","","","","","","","","","","","","","","","","","","",""
"","","","","","canvas-keyboard-response","146","379944","0.0-12.0-4.26","2d_cat_multi_stim_exp1","2022-4-5","15:13:9","25","75","3","9","10","40","30","120","14","19","[""Black or African-American"",""White""]","No","Female","2182865","null","null","","","","clear_screen","","","","","","","","","","","","","","","","","","","","","","","","","",""
"","","","","","canvas-keyboard-response","147","380453","0.0-12.0-0.27","2d_cat_multi_stim_exp1","2022-4-5","15:13:9","25","75","3","9","10","40","30","120","14","19","[""Black or African-American"",""White""]","No","Female","2182865","null","null","","","","fixation","","","","","","","","","","","","","","","","","","","","","","","","","",""
"","","","","","canvas-keyboard-response","148","380966","0.0-12.0-1.27","2d_cat_multi_stim_exp1","2022-4-5","15:13:9","25","75","3","9","10","40","30","120","14","19","[""Black or African-American"",""White""]","No","Female","2182865","null","null","","","","clear_screen","","","","","","","","","","","","","","","","","","","","","","","","","",""
"","","","","","canvas-keyboard-response","149","382359","0.0-12.0-2.27","2d_cat_multi_stim_exp1","2022-4-5","15:13:9","25","75","3","9","10","40","30","120","14","19","[""Black or African-American"",""White""]","No","Female","2182865","1387","i","learn","","","learn_trial","40","100","out","0","1","","","","","","","","","","","","","","","","","","","","",""
"","","","","","canvas-keyboard-response","150","382870","0.0-12.0-3.27","2d_cat_multi_stim_exp1","2022-4-5","15:13:9","25","75","3","9","10","40","30","120","14","19","[""Black or African-American"",""White""]","No","Female","2182865","null","null","learn_feedback","","","learn_feedback","40","100","out","","","","","","","","","","","","","","","","","","","","","","",""
"","","","","","canvas-keyboard-response","151","382929","0.0-12.0-4.27","2d_cat_multi_stim_exp1","2022-4-5","15:13:9","25","75","3","9","10","40","30","120","14","19","[""Black or African-American"",""White""]","No","Female","2182865","null","null","","","","clear_screen","","","","","","","","","","","","","","","","","","","","","","","","","",""
"","","","","","canvas-keyboard-response","152","383438","0.0-12.0-0.28","2d_cat_multi_stim_exp1","2022-4-5","15:13:9","25","75","3","9","10","40","30","120","14","19","[""Black or African-American"",""White""]","No","Female","2182865","null","null","","","","fixation","","","","","","","","","","","","","","","","","","","","","","","","","",""
"","","","","","canvas-keyboard-response","153","383947","0.0-12.0-1.28","2d_cat_multi_stim_exp1","2022-4-5","15:13:9","25","75","3","9","10","40","30","120","14","19","[""Black or African-American"",""White""]","No","Female","2182865","null","null","","","","clear_screen","","","","","","","","","","","","","","","","","","","","","","","","","",""
"","","","","","canvas-keyboard-response","154","384640","0.0-12.0-2.28","2d_cat_multi_stim_exp1","2022-4-5","15:13:9","25","75","3","9","10","40","30","120","14","19","[""Black or African-American"",""White""]","No","Female","2182865","684","u","learn","","","learn_trial","27.8087","78.1624","in","1","1","","","","","","","","","","","","","","","","","","","","",""
"","","","","","canvas-keyboard-response","155","385150","0.0-12.0-3.28","2d_cat_multi_stim_exp1","2022-4-5","15:13:9","25","75","3","9","10","40","30","120","14","19","[""Black or African-American"",""White""]","No","Female","2182865","null","null","learn_feedback","","","learn_feedback","27.8087","78.1624","in","","","","","","","","","","","","","","","","","","","","","","",""
"","","","","","canvas-keyboard-response","156","385209","0.0-12.0-4.28","2d_cat_multi_stim_exp1","2022-4-5","15:13:9","25","75","3","9","10","40","30","120","14","19","[""Black or African-American"",""White""]","No","Female","2182865","null","null","","","","clear_screen","","","","","","","","","","","","","","","","","","","","","","","","","",""
"","","","","","canvas-keyboard-response","157","385718","0.0-12.0-0.29","2d_cat_multi_stim_exp1","2022-4-5","15:13:9","25","75","3","9","10","40","30","120","14","19","[""Black or African-American"",""White""]","No","Female","2182865","null","null","","","","fixation","","","","","","","","","","","","","","","","","","","","","","","","","",""
"","","","","","canvas-keyboard-response","158","386228","0.0-12.0-1.29","2d_cat_multi_stim_exp1","2022-4-5","15:13:9","25","75","3","9","10","40","30","120","14","19","[""Black or African-American"",""White""]","No","Female","2182865","null","null","","","","clear_screen","","","","","","","","","","","","","","","","","","","","","","","","","",""
"","","","","","canvas-keyboard-response","159","387280","0.0-12.0-2.29","2d_cat_multi_stim_exp1","2022-4-5","15:13:9","25","75","3","9","10","40","30","120","14","19","[""Black or African-American"",""White""]","No","Female","2182865","1042","i","learn","","","learn_trial","36.6667","80","out","0","1","","","","","","","","","","","","","","","","","","","","",""
"","","","","","canvas-keyboard-response","160","387789","0.0-12.0-3.29","2d_cat_multi_stim_exp1","2022-4-5","15:13:9","25","75","3","9","10","40","30","120","14","19","[""Black or African-American"",""White""]","No","Female","2182865","null","null","learn_feedback","","","learn_feedback","36.6667","80","out","","","","","","","","","","","","","","","","","","","","","","",""
"","","","","","canvas-keyboard-response","161","387848","0.0-12.0-4.29","2d_cat_multi_stim_exp1","2022-4-5","15:13:9","25","75","3","9","10","40","30","120","14","19","[""Black or African-American"",""White""]","No","Female","2182865","null","null","","","","clear_screen","","","","","","","","","","","","","","","","","","","","","","","","","",""
"","","","","","canvas-keyboard-response","162","388357","0.0-12.0-0.30","2d_cat_multi_stim_exp1","2022-4-5","15:13:9","25","75","3","9","10","40","30","120","14","19","[""Black or African-American"",""White""]","No","Female","2182865","null","null","","","","fixation","","","","","","","","","","","","","","","","","","","","","","","","","",""
"","","","","","canvas-keyboard-response","163","388866","0.0-12.0-1.30","2d_cat_multi_stim_exp1","2022-4-5","15:13:9","25","75","3","9","10","40","30","120","14","19","[""Black or African-American"",""White""]","No","Female","2182865","null","null","","","","clear_screen","","","","","","","","","","","","","","","","","","","","","","","","","",""
"","","","","","canvas-keyboard-response","164","389737","0.0-12.0-2.30","2d_cat_multi_stim_exp1","2022-4-5","15:13:9","25","75","3","9","10","40","30","120","14","19","[""Black or African-American"",""White""]","No","Female","2182865","861","u","learn","","","learn_trial","25","75","in","1","1","","","","","","","","","","","","","","","","","","","","",""
"","","","","","canvas-keyboard-response","165","390249","0.0-12.0-3.30","2d_cat_multi_stim_exp1","2022-4-5","15:13:9","25","75","3","9","10","40","30","120","14","19","[""Black or African-American"",""White""]","No","Female","2182865","null","null","learn_feedback","","","learn_feedback","25","75","in","","","","","","","","","","","","","","","","","","","","","","",""
"","","","","","canvas-keyboard-response","166","390311","0.0-12.0-4.30","2d_cat_multi_stim_exp1","2022-4-5","15:13:9","25","75","3","9","10","40","30","120","14","19","[""Black or African-American"",""White""]","No","Female","2182865","null","null","","","","clear_screen","","","","","","","","","","","","","","","","","","","","","","","","","",""
"","","","","","canvas-keyboard-response","167","390822","0.0-12.0-0.31","2d_cat_multi_stim_exp1","2022-4-5","15:13:9","25","75","3","9","10","40","30","120","14","19","[""Black or African-American"",""White""]","No","Female","2182865","null","null","","","","fixation","","","","","","","","","","","","","","","","","","","","","","","","","",""
"","","","","","canvas-keyboard-response","168","391332","0.0-12.0-1.31","2d_cat_multi_stim_exp1","2022-4-5","15:13:9","25","75","3","9","10","40","30","120","14","19","[""Black or African-American"",""White""]","No","Female","2182865","null","null","","","","clear_screen","","","","","","","","","","","","","","","","","","","","","","","","","",""
"","","","","","canvas-keyboard-response","169","392808","0.0-12.0-2.31","2d_cat_multi_stim_exp1","2022-4-5","15:13:9","25","75","3","9","10","40","30","120","14","19","[""Black or African-American"",""White""]","No","Female","2182865","1466","u","learn","","","learn_trial","25","75","in","1","1","","","","","","","","","","","","","","","","","","","","",""
"","","","","","canvas-keyboard-response","170","393319","0.0-12.0-3.31","2d_cat_multi_stim_exp1","2022-4-5","15:13:9","25","75","3","9","10","40","30","120","14","19","[""Black or African-American"",""White""]","No","Female","2182865","null","null","learn_feedback","","","learn_feedback","25","75","in","","","","","","","","","","","","","","","","","","","","","","",""
"","","","","","canvas-keyboard-response","171","393378","0.0-12.0-4.31","2d_cat_multi_stim_exp1","2022-4-5","15:13:9","25","75","3","9","10","40","30","120","14","19","[""Black or African-American"",""White""]","No","Female","2182865","null","null","","","","clear_screen","","","","","","","","","","","","","","","","","","","","","","","","","",""
"","","","","","canvas-keyboard-response","172","393888","0.0-12.0-0.32","2d_cat_multi_stim_exp1","2022-4-5","15:13:9","25","75","3","9","10","40","30","120","14","19","[""Black or African-American"",""White""]","No","Female","2182865","null","null","","","","fixation","","","","","","","","","","","","","","","","","","","","","","","","","",""
"","","","","","canvas-keyboard-response","173","394398","0.0-12.0-1.32","2d_cat_multi_stim_exp1","2022-4-5","15:13:9","25","75","3","9","10","40","30","120","14","19","[""Black or African-American"",""White""]","No","Female","2182865","null","null","","","","clear_screen","","","","","","","","","","","","","","","","","","","","","","","","","",""
"","","","","","canvas-keyboard-response","174","396689","0.0-12.0-2.32","2d_cat_multi_stim_exp1","2022-4-5","15:13:9","25","75","3","9","10","40","30","120","14","19","[""Black or African-American"",""White""]","No","Female","2182865","2281","u","learn","","","learn_trial","25","75","in","1","1","","","","","","","","","","","","","","","","","","","","",""
"","","","","","canvas-keyboard-response","175","397200","0.0-12.0-3.32","2d_cat_multi_stim_exp1","2022-4-5","15:13:9","25","75","3","9","10","40","30","120","14","19","[""Black or African-American"",""White""]","No","Female","2182865","null","null","learn_feedback","","","learn_feedback","25","75","in","","","","","","","","","","","","","","","","","","","","","","",""
"","","","","","canvas-keyboard-response","176","397259","0.0-12.0-4.32","2d_cat_multi_stim_exp1","2022-4-5","15:13:9","25","75","3","9","10","40","30","120","14","19","[""Black or African-American"",""White""]","No","Female","2182865","null","null","","","","clear_screen","","","","","","","","","","","","","","","","","","","","","","","","","",""
"","","","","","canvas-keyboard-response","177","397769","0.0-12.0-0.33","2d_cat_multi_stim_exp1","2022-4-5","15:13:9","25","75","3","9","10","40","30","120","14","19","[""Black or African-American"",""White""]","No","Female","2182865","null","null","","","","fixation","","","","","","","","","","","","","","","","","","","","","","","","","",""
"","","","","","canvas-keyboard-response","178","398279","0.0-12.0-1.33","2d_cat_multi_stim_exp1","2022-4-5","15:13:9","25","75","3","9","10","40","30","120","14","19","[""Black or African-American"",""White""]","No","Female","2182865","null","null","","","","clear_screen","","","","","","","","","","","","","","","","","","","","","","","","","",""
"","","","","","canvas-keyboard-response","179","399192","0.0-12.0-2.33","2d_cat_multi_stim_exp1","2022-4-5","15:13:9","25","75","3","9","10","40","30","120","14","19","[""Black or African-American"",""White""]","No","Female","2182865","903","u","learn","","","learn_trial","25","75","in","1","1","","","","","","","","","","","","","","","","","","","","",""
"","","","","","canvas-keyboard-response","180","399703","0.0-12.0-3.33","2d_cat_multi_stim_exp1","2022-4-5","15:13:9","25","75","3","9","10","40","30","120","14","19","[""Black or African-American"",""White""]","No","Female","2182865","null","null","learn_feedback","","","learn_feedback","25","75","in","","","","","","","","","","","","","","","","","","","","","","",""
"","","","","","canvas-keyboard-response","181","399762","0.0-12.0-4.33","2d_cat_multi_stim_exp1","2022-4-5","15:13:9","25","75","3","9","10","40","30","120","14","19","[""Black or African-American"",""White""]","No","Female","2182865","null","null","","","","clear_screen","","","","","","","","","","","","","","","","","","","","","","","","","",""
"","","","","","canvas-keyboard-response","182","400271","0.0-12.0-0.34","2d_cat_multi_stim_exp1","2022-4-5","15:13:9","25","75","3","9","10","40","30","120","14","19","[""Black or African-American"",""White""]","No","Female","2182865","null","null","","","","fixation","","","","","","","","","","","","","","","","","","","","","","","","","",""
"","","","","","canvas-keyboard-response","183","400780","0.0-12.0-1.34","2d_cat_multi_stim_exp1","2022-4-5","15:13:9","25","75","3","9","10","40","30","120","14","19","[""Black or African-American"",""White""]","No","Female","2182865","null","null","","","","clear_screen","","","","","","","","","","","","","","","","","","","","","","","","","",""
"","","","","","canvas-keyboard-response","184","401448","0.0-12.0-2.34","2d_cat_multi_stim_exp1","2022-4-5","15:13:9","25","75","3","9","10","40","30","120","14","19","[""Black or African-American"",""White""]","No","Female","2182865","658","u","learn","","","learn_trial","25","75","in","1","1","","","","","","","","","","","","","","","","","","","","",""
"","","","","","canvas-keyboard-response","185","401958","0.0-12.0-3.34","2d_cat_multi_stim_exp1","2022-4-5","15:13:9","25","75","3","9","10","40","30","120","14","19","[""Black or African-American"",""White""]","No","Female","2182865","null","null","learn_feedback","","","learn_feedback","25","75","in","","","","","","","","","","","","","","","","","","","","","","",""
"","","","","","canvas-keyboard-response","186","402016","0.0-12.0-4.34","2d_cat_multi_stim_exp1","2022-4-5","15:13:9","25","75","3","9","10","40","30","120","14","19","[""Black or African-American"",""White""]","No","Female","2182865","null","null","","","","clear_screen","","","","","","","","","","","","","","","","","","","","","","","","","",""
"","","","","","canvas-keyboard-response","187","402525","0.0-12.0-0.35","2d_cat_multi_stim_exp1","2022-4-5","15:13:9","25","75","3","9","10","40","30","120","14","19","[""Black or African-American"",""White""]","No","Female","2182865","null","null","","","","fixation","","","","","","","","","","","","","","","","","","","","","","","","","",""
"","","","","","canvas-keyboard-response","188","403035","0.0-12.0-1.35","2d_cat_multi_stim_exp1","2022-4-5","15:13:9","25","75","3","9","10","40","30","120","14","19","[""Black or African-American"",""White""]","No","Female","2182865","null","null","","","","clear_screen","","","","","","","","","","","","","","","","","","","","","","","","","",""
"","","","","","canvas-keyboard-response","189","403576","0.0-12.0-2.35","2d_cat_multi_stim_exp1","2022-4-5","15:13:9","25","75","3","9","10","40","30","120","14","19","[""Black or African-American"",""White""]","No","Female","2182865","531","u","learn","","","learn_trial","25","75","in","1","1","","","","","","","","","","","","","","","","","","","","",""
"","","","","","canvas-keyboard-response","190","404087","0.0-12.0-3.35","2d_cat_multi_stim_exp1","2022-4-5","15:13:9","25","75","3","9","10","40","30","120","14","19","[""Black or African-American"",""White""]","No","Female","2182865","null","null","learn_feedback","","","learn_feedback","25","75","in","","","","","","","","","","","","","","","","","","","","","","",""
"","","","","","canvas-keyboard-response","191","404146","0.0-12.0-4.35","2d_cat_multi_stim_exp1","2022-4-5","15:13:9","25","75","3","9","10","40","30","120","14","19","[""Black or African-American"",""White""]","No","Female","2182865","null","null","","","","clear_screen","","","","","","","","","","","","","","","","","","","","","","","","","",""
"","","","","","canvas-keyboard-response","192","404655","0.0-12.0-0.36","2d_cat_multi_stim_exp1","2022-4-5","15:13:9","25","75","3","9","10","40","30","120","14","19","[""Black or African-American"",""White""]","No","Female","2182865","null","null","","","","fixation","","","","","","","","","","","","","","","","","","","","","","","","","",""
"","","","","","canvas-keyboard-response","193","405165","0.0-12.0-1.36","2d_cat_multi_stim_exp1","2022-4-5","15:13:9","25","75","3","9","10","40","30","120","14","19","[""Black or African-American"",""White""]","No","Female","2182865","null","null","","","","clear_screen","","","","","","","","","","","","","","","","","","","","","","","","","",""
"","","","","","canvas-keyboard-response","194","405896","0.0-12.0-2.36","2d_cat_multi_stim_exp1","2022-4-5","15:13:9","25","75","3","9","10","40","30","120","14","19","[""Black or African-American"",""White""]","No","Female","2182865","722","i","learn","","","learn_trial","13.3333","120","out","0","1","","","","","","","","","","","","","","","","","","","","",""
"","","","","","canvas-keyboard-response","195","406406","0.0-12.0-3.36","2d_cat_multi_stim_exp1","2022-4-5","15:13:9","25","75","3","9","10","40","30","120","14","19","[""Black or African-American"",""White""]","No","Female","2182865","null","null","learn_feedback","","","learn_feedback","13.3333","120","out","","","","","","","","","","","","","","","","","","","","","","",""
"","","","","","canvas-keyboard-response","196","406468","0.0-12.0-4.36","2d_cat_multi_stim_exp1","2022-4-5","15:13:9","25","75","3","9","10","40","30","120","14","19","[""Black or African-American"",""White""]","No","Female","2182865","null","null","","","","clear_screen","","","","","","","","","","","","","","","","","","","","","","","","","",""
"","","","","","canvas-keyboard-response","197","406977","0.0-12.0-0.37","2d_cat_multi_stim_exp1","2022-4-5","15:13:9","25","75","3","9","10","40","30","120","14","19","[""Black or African-American"",""White""]","No","Female","2182865","null","null","","","","fixation","","","","","","","","","","","","","","","","","","","","","","","","","",""
"","","","","","canvas-keyboard-response","198","407486","0.0-12.0-1.37","2d_cat_multi_stim_exp1","2022-4-5","15:13:9","25","75","3","9","10","40","30","120","14","19","[""Black or African-American"",""White""]","No","Female","2182865","null","null","","","","clear_screen","","","","","","","","","","","","","","","","","","","","","","","","","",""
"","","","","","canvas-keyboard-response","199","408272","0.0-12.0-2.37","2d_cat_multi_stim_exp1","2022-4-5","15:13:9","25","75","3","9","10","40","30","120","14","19","[""Black or African-American"",""White""]","No","Female","2182865","776","u","learn","","","learn_trial","25","75","in","1","1","","","","","","","","","","","","","","","","","","","","",""
"","","","","","canvas-keyboard-response","200","408782","0.0-12.0-3.37","2d_cat_multi_stim_exp1","2022-4-5","15:13:9","25","75","3","9","10","40","30","120","14","19","[""Black or African-American"",""White""]","No","Female","2182865","null","null","learn_feedback","","","learn_feedback","25","75","in","","","","","","","","","","","","","","","","","","","","","","",""
"","","","","","canvas-keyboard-response","201","408842","0.0-12.0-4.37","2d_cat_multi_stim_exp1","2022-4-5","15:13:9","25","75","3","9","10","40","30","120","14","19","[""Black or African-American"",""White""]","No","Female","2182865","null","null","","","","clear_screen","","","","","","","","","","","","","","","","","","","","","","","","","",""
"","","","","","canvas-keyboard-response","202","409350","0.0-12.0-0.38","2d_cat_multi_stim_exp1","2022-4-5","15:13:9","25","75","3","9","10","40","30","120","14","19","[""Black or African-American"",""White""]","No","Female","2182865","null","null","","","","fixation","","","","","","","","","","","","","","","","","","","","","","","","","",""
"","","","","","canvas-keyboard-response","203","409860","0.0-12.0-1.38","2d_cat_multi_stim_exp1","2022-4-5","15:13:9","25","75","3","9","10","40","30","120","14","19","[""Black or African-American"",""White""]","No","Female","2182865","null","null","","","","clear_screen","","","","","","","","","","","","","","","","","","","","","","","","","",""
"","","","","","canvas-keyboard-response","204","410920","0.0-12.0-2.38","2d_cat_multi_stim_exp1","2022-4-5","15:13:9","25","75","3","9","10","40","30","120","14","19","[""Black or African-American"",""White""]","No","Female","2182865","1050","u","learn","","","learn_trial","25","75","in","1","1","","","","","","","","","","","","","","","","","","","","",""
"","","","","","canvas-keyboard-response","205","411429","0.0-12.0-3.38","2d_cat_multi_stim_exp1","2022-4-5","15:13:9","25","75","3","9","10","40","30","120","14","19","[""Black or African-American"",""White""]","No","Female","2182865","null","null","learn_feedback","","","learn_feedback","25","75","in","","","","","","","","","","","","","","","","","","","","","","",""
"","","","","","canvas-keyboard-response","206","411492","0.0-12.0-4.38","2d_cat_multi_stim_exp1","2022-4-5","15:13:9","25","75","3","9","10","40","30","120","14","19","[""Black or African-American"",""White""]","No","Female","2182865","null","null","","","","clear_screen","","","","","","","","","","","","","","","","","","","","","","","","","",""
"","","","","","canvas-keyboard-response","207","412002","0.0-12.0-0.39","2d_cat_multi_stim_exp1","2022-4-5","15:13:9","25","75","3","9","10","40","30","120","14","19","[""Black or African-American"",""White""]","No","Female","2182865","null","null","","","","fixation","","","","","","","","","","","","","","","","","","","","","","","","","",""
"","","","","","canvas-keyboard-response","208","412511","0.0-12.0-1.39","2d_cat_multi_stim_exp1","2022-4-5","15:13:9","25","75","3","9","10","40","30","120","14","19","[""Black or African-American"",""White""]","No","Female","2182865","null","null","","","","clear_screen","","","","","","","","","","","","","","","","","","","","","","","","","",""
"","","","","","canvas-keyboard-response","209","413328","0.0-12.0-2.39","2d_cat_multi_stim_exp1","2022-4-5","15:13:9","25","75","3","9","10","40","30","120","14","19","[""Black or African-American"",""White""]","No","Female","2182865","807","i","learn","","","learn_trial","30","70","out","0","1","","","","","","","","","","","","","","","","","","","","",""
"","","","","","canvas-keyboard-response","210","413839","0.0-12.0-3.39","2d_cat_multi_stim_exp1","2022-4-5","15:13:9","25","75","3","9","10","40","30","120","14","19","[""Black or African-American"",""White""]","No","Female","2182865","null","null","learn_feedback","","","learn_feedback","30","70","out","","","","","","","","","","","","","","","","","","","","","","",""
"","","","","","canvas-keyboard-response","211","413898","0.0-12.0-4.39","2d_cat_multi_stim_exp1","2022-4-5","15:13:9","25","75","3","9","10","40","30","120","14","19","[""Black or African-American"",""White""]","No","Female","2182865","null","null","","","","clear_screen","","","","","","","","","","","","","","","","","","","","","","","","","",""
"","","","","","canvas-keyboard-response","212","414407","0.0-12.0-0.40","2d_cat_multi_stim_exp1","2022-4-5","15:13:9","25","75","3","9","10","40","30","120","14","19","[""Black or African-American"",""White""]","No","Female","2182865","null","null","","","","fixation","","","","","","","","","","","","","","","","","","","","","","","","","",""
"","","","","","canvas-keyboard-response","213","414916","0.0-12.0-1.40","2d_cat_multi_stim_exp1","2022-4-5","15:13:9","25","75","3","9","10","40","30","120","14","19","[""Black or African-American"",""White""]","No","Female","2182865","null","null","","","","clear_screen","","","","","","","","","","","","","","","","","","","","","","","","","",""
"","","","","","canvas-keyboard-response","214","415577","0.0-12.0-2.40","2d_cat_multi_stim_exp1","2022-4-5","15:13:9","25","75","3","9","10","40","30","120","14","19","[""Black or African-American"",""White""]","No","Female","2182865","650","u","learn","","","learn_trial","25","75","in","1","1","","","","","","","","","","","","","","","","","","","","",""
"","","","","","canvas-keyboard-response","215","416086","0.0-12.0-3.40","2d_cat_multi_stim_exp1","2022-4-5","15:13:9","25","75","3","9","10","40","30","120","14","19","[""Black or African-American"",""White""]","No","Female","2182865","null","null","learn_feedback","","","learn_feedback","25","75","in","","","","","","","","","","","","","","","","","","","","","","",""
"","","","","","canvas-keyboard-response","216","416145","0.0-12.0-4.40","2d_cat_multi_stim_exp1","2022-4-5","15:13:9","25","75","3","9","10","40","30","120","14","19","[""Black or African-American"",""White""]","No","Female","2182865","null","null","","","","clear_screen","","","","","","","","","","","","","","","","","","","","","","","","","",""
"","","","","","canvas-keyboard-response","217","416654","0.0-12.0-0.41","2d_cat_multi_stim_exp1","2022-4-5","15:13:9","25","75","3","9","10","40","30","120","14","19","[""Black or African-American"",""White""]","No","Female","2182865","null","null","","","","fixation","","","","","","","","","","","","","","","","","","","","","","","","","",""
"","","","","","canvas-keyboard-response","218","417164","0.0-12.0-1.41","2d_cat_multi_stim_exp1","2022-4-5","15:13:9","25","75","3","9","10","40","30","120","14","19","[""Black or African-American"",""White""]","No","Female","2182865","null","null","","","","clear_screen","","","","","","","","","","","","","","","","","","","","","","","","","",""
"","","","","","canvas-keyboard-response","219","418536","0.0-12.0-2.41","2d_cat_multi_stim_exp1","2022-4-5","15:13:9","25","75","3","9","10","40","30","120","14","19","[""Black or African-American"",""White""]","No","Female","2182865","1363","u","learn","","","learn_trial","25","75","in","1","1","","","","","","","","","","","","","","","","","","","","",""
"","","","","","canvas-keyboard-response","220","419046","0.0-12.0-3.41","2d_cat_multi_stim_exp1","2022-4-5","15:13:9","25","75","3","9","10","40","30","120","14","19","[""Black or African-American"",""White""]","No","Female","2182865","null","null","learn_feedback","","","learn_feedback","25","75","in","","","","","","","","","","","","","","","","","","","","","","",""
"","","","","","canvas-keyboard-response","221","419104","0.0-12.0-4.41","2d_cat_multi_stim_exp1","2022-4-5","15:13:9","25","75","3","9","10","40","30","120","14","19","[""Black or African-American"",""White""]","No","Female","2182865","null","null","","","","clear_screen","","","","","","","","","","","","","","","","","","","","","","","","","",""
"","","","","","canvas-keyboard-response","222","419616","0.0-12.0-0.42","2d_cat_multi_stim_exp1","2022-4-5","15:13:9","25","75","3","9","10","40","30","120","14","19","[""Black or African-American"",""White""]","No","Female","2182865","null","null","","","","fixation","","","","","","","","","","","","","","","","","","","","","","","","","",""
"","","","","","canvas-keyboard-response","223","420126","0.0-12.0-1.42","2d_cat_multi_stim_exp1","2022-4-5","15:13:9","25","75","3","9","10","40","30","120","14","19","[""Black or African-American"",""White""]","No","Female","2182865","null","null","","","","clear_screen","","","","","","","","","","","","","","","","","","","","","","","","","",""
"","","","","","canvas-keyboard-response","224","420760","0.0-12.0-2.42","2d_cat_multi_stim_exp1","2022-4-5","15:13:9","25","75","3","9","10","40","30","120","14","19","[""Black or African-American"",""White""]","No","Female","2182865","624","i","learn","","","learn_trial","10","90","out","0","1","","","","","","","","","","","","","","","","","","","","",""
"","","","","","canvas-keyboard-response","225","421270","0.0-12.0-3.42","2d_cat_multi_stim_exp1","2022-4-5","15:13:9","25","75","3","9","10","40","30","120","14","19","[""Black or African-American"",""White""]","No","Female","2182865","null","null","learn_feedback","","","learn_feedback","10","90","out","","","","","","","","","","","","","","","","","","","","","","",""
"","","","","","canvas-keyboard-response","226","421328","0.0-12.0-4.42","2d_cat_multi_stim_exp1","2022-4-5","15:13:9","25","75","3","9","10","40","30","120","14","19","[""Black or African-American"",""White""]","No","Female","2182865","null","null","","","","clear_screen","","","","","","","","","","","","","","","","","","","","","","","","","",""
"","","","","","canvas-keyboard-response","227","421838","0.0-12.0-0.43","2d_cat_multi_stim_exp1","2022-4-5","15:13:9","25","75","3","9","10","40","30","120","14","19","[""Black or African-American"",""White""]","No","Female","2182865","null","null","","","","fixation","","","","","","","","","","","","","","","","","","","","","","","","","",""
"","","","","","canvas-keyboard-response","228","422348","0.0-12.0-1.43","2d_cat_multi_stim_exp1","2022-4-5","15:13:9","25","75","3","9","10","40","30","120","14","19","[""Black or African-American"",""White""]","No","Female","2182865","null","null","","","","clear_screen","","","","","","","","","","","","","","","","","","","","","","","","","",""
"","","","","","canvas-keyboard-response","229","423167","0.0-12.0-2.43","2d_cat_multi_stim_exp1","2022-4-5","15:13:9","25","75","3","9","10","40","30","120","14","19","[""Black or African-American"",""White""]","No","Female","2182865","810","i","learn","","","learn_trial","36.6667","90","out","0","1","","","","","","","","","","","","","","","","","","","","",""
"","","","","","canvas-keyboard-response","230","423677","0.0-12.0-3.43","2d_cat_multi_stim_exp1","2022-4-5","15:13:9","25","75","3","9","10","40","30","120","14","19","[""Black or African-American"",""White""]","No","Female","2182865","null","null","learn_feedback","","","learn_feedback","36.6667","90","out","","","","","","","","","","","","","","","","","","","","","","",""
"","","","","","canvas-keyboard-response","231","423737","0.0-12.0-4.43","2d_cat_multi_stim_exp1","2022-4-5","15:13:9","25","75","3","9","10","40","30","120","14","19","[""Black or African-American"",""White""]","No","Female","2182865","null","null","","","","clear_screen","","","","","","","","","","","","","","","","","","","","","","","","","",""
"","","","","","canvas-keyboard-response","232","424246","0.0-12.0-0.44","2d_cat_multi_stim_exp1","2022-4-5","15:13:9","25","75","3","9","10","40","30","120","14","19","[""Black or African-American"",""White""]","No","Female","2182865","null","null","","","","fixation","","","","","","","","","","","","","","","","","","","","","","","","","",""
"","","","","","canvas-keyboard-response","233","424756","0.0-12.0-1.44","2d_cat_multi_stim_exp1","2022-4-5","15:13:9","25","75","3","9","10","40","30","120","14","19","[""Black or African-American"",""White""]","No","Female","2182865","null","null","","","","clear_screen","","","","","","","","","","","","","","","","","","","","","","","","","",""
"","","","","","canvas-keyboard-response","234","425687","0.0-12.0-2.44","2d_cat_multi_stim_exp1","2022-4-5","15:13:9","25","75","3","9","10","40","30","120","14","19","[""Black or African-American"",""White""]","No","Female","2182865","923","u","learn","","","learn_trial","23.3473","82.5112","in","1","1","","","","","","","","","","","","","","","","","","","","",""
"","","","","","canvas-keyboard-response","235","426197","0.0-12.0-3.44","2d_cat_multi_stim_exp1","2022-4-5","15:13:9","25","75","3","9","10","40","30","120","14","19","[""Black or African-American"",""White""]","No","Female","2182865","null","null","learn_feedback","","","learn_feedback","23.3473","82.5112","in","","","","","","","","","","","","","","","","","","","","","","",""
"","","","","","canvas-keyboard-response","236","426256","0.0-12.0-4.44","2d_cat_multi_stim_exp1","2022-4-5","15:13:9","25","75","3","9","10","40","30","120","14","19","[""Black or African-American"",""White""]","No","Female","2182865","null","null","","","","clear_screen","","","","","","","","","","","","","","","","","","","","","","","","","",""
"","","","","","canvas-keyboard-response","237","426766","0.0-12.0-0.45","2d_cat_multi_stim_exp1","2022-4-5","15:13:9","25","75","3","9","10","40","30","120","14","19","[""Black or African-American"",""White""]","No","Female","2182865","null","null","","","","fixation","","","","","","","","","","","","","","","","","","","","","","","","","",""
"","","","","","canvas-keyboard-response","238","427278","0.0-12.0-1.45","2d_cat_multi_stim_exp1","2022-4-5","15:13:9","25","75","3","9","10","40","30","120","14","19","[""Black or African-American"",""White""]","No","Female","2182865","null","null","","","","clear_screen","","","","","","","","","","","","","","","","","","","","","","","","","",""
"","","","","","canvas-keyboard-response","239","427879","0.0-12.0-2.45","2d_cat_multi_stim_exp1","2022-4-5","15:13:9","25","75","3","9","10","40","30","120","14","19","[""Black or African-American"",""White""]","No","Female","2182865","595","i","learn","","","learn_trial","16.6667","40","out","0","1","","","","","","","","","","","","","","","","","","","","",""
"","","","","","canvas-keyboard-response","240","428389","0.0-12.0-3.45","2d_cat_multi_stim_exp1","2022-4-5","15:13:9","25","75","3","9","10","40","30","120","14","19","[""Black or African-American"",""White""]","No","Female","2182865","null","null","learn_feedback","","","learn_feedback","16.6667","40","out","","","","","","","","","","","","","","","","","","","","","","",""
"","","","","","canvas-keyboard-response","241","428449","0.0-12.0-4.45","2d_cat_multi_stim_exp1","2022-4-5","15:13:9","25","75","3","9","10","40","30","120","14","19","[""Black or African-American"",""White""]","No","Female","2182865","null","null","","","","clear_screen","","","","","","","","","","","","","","","","","","","","","","","","","",""
"","","","","","canvas-keyboard-response","242","428957","0.0-12.0-0.46","2d_cat_multi_stim_exp1","2022-4-5","15:13:9","25","75","3","9","10","40","30","120","14","19","[""Black or African-American"",""White""]","No","Female","2182865","null","null","","","","fixation","","","","","","","","","","","","","","","","","","","","","","","","","",""
"","","","","","canvas-keyboard-response","243","429467","0.0-12.0-1.46","2d_cat_multi_stim_exp1","2022-4-5","15:13:9","25","75","3","9","10","40","30","120","14","19","[""Black or African-American"",""White""]","No","Female","2182865","null","null","","","","clear_screen","","","","","","","","","","","","","","","","","","","","","","","","","",""
"","","","","","canvas-keyboard-response","244","430304","0.0-12.0-2.46","2d_cat_multi_stim_exp1","2022-4-5","15:13:9","25","75","3","9","10","40","30","120","14","19","[""Black or African-American"",""White""]","No","Female","2182865","828","i","learn","","","learn_trial","33.3333","30","out","0","1","","","","","","","","","","","","","","","","","","","","",""
"","","","","","canvas-keyboard-response","245","430814","0.0-12.0-3.46","2d_cat_multi_stim_exp1","2022-4-5","15:13:9","25","75","3","9","10","40","30","120","14","19","[""Black or African-American"",""White""]","No","Female","2182865","null","null","learn_feedback","","","learn_feedback","33.3333","30","out","","","","","","","","","","","","","","","","","","","","","","",""
"","","","","","canvas-keyboard-response","246","430873","0.0-12.0-4.46","2d_cat_multi_stim_exp1","2022-4-5","15:13:9","25","75","3","9","10","40","30","120","14","19","[""Black or African-American"",""White""]","No","Female","2182865","null","null","","","","clear_screen","","","","","","","","","","","","","","","","","","","","","","","","","",""
"","","","","","canvas-keyboard-response","247","431383","0.0-12.0-0.47","2d_cat_multi_stim_exp1","2022-4-5","15:13:9","25","75","3","9","10","40","30","120","14","19","[""Black or African-American"",""White""]","No","Female","2182865","null","null","","","","fixation","","","","","","","","","","","","","","","","","","","","","","","","","",""
"","","","","","canvas-keyboard-response","248","431892","0.0-12.0-1.47","2d_cat_multi_stim_exp1","2022-4-5","15:13:9","25","75","3","9","10","40","30","120","14","19","[""Black or African-American"",""White""]","No","Female","2182865","null","null","","","","clear_screen","","","","","","","","","","","","","","","","","","","","","","","","","",""
"","","","","","canvas-keyboard-response","249","432903","0.0-12.0-2.47","2d_cat_multi_stim_exp1","2022-4-5","15:13:9","25","75","3","9","10","40","30","120","14","19","[""Black or African-American"",""White""]","No","Female","2182865","1001","u","learn","","","learn_trial","27.2592","69.0786","in","1","1","","","","","","","","","","","","","","","","","","","","",""
"","","","","","canvas-keyboard-response","250","433412","0.0-12.0-3.47","2d_cat_multi_stim_exp1","2022-4-5","15:13:9","25","75","3","9","10","40","30","120","14","19","[""Black or African-American"",""White""]","No","Female","2182865","null","null","learn_feedback","","","learn_feedback","27.2592","69.0786","in","","","","","","","","","","","","","","","","","","","","","","",""
"","","","","","canvas-keyboard-response","251","433472","0.0-12.0-4.47","2d_cat_multi_stim_exp1","2022-4-5","15:13:9","25","75","3","9","10","40","30","120","14","19","[""Black or African-American"",""White""]","No","Female","2182865","null","null","","","","clear_screen","","","","","","","","","","","","","","","","","","","","","","","","","",""
"","","","","","canvas-keyboard-response","252","433981","0.0-12.0-0.48","2d_cat_multi_stim_exp1","2022-4-5","15:13:9","25","75","3","9","10","40","30","120","14","19","[""Black or African-American"",""White""]","No","Female","2182865","null","null","","","","fixation","","","","","","","","","","","","","","","","","","","","","","","","","",""
"","","","","","canvas-keyboard-response","253","434490","0.0-12.0-1.48","2d_cat_multi_stim_exp1","2022-4-5","15:13:9","25","75","3","9","10","40","30","120","14","19","[""Black or African-American"",""White""]","No","Female","2182865","null","null","","","","clear_screen","","","","","","","","","","","","","","","","","","","","","","","","","",""
"","","","","","canvas-keyboard-response","254","435191","0.0-12.0-2.48","2d_cat_multi_stim_exp1","2022-4-5","15:13:9","25","75","3","9","10","40","30","120","14","19","[""Black or African-American"",""White""]","No","Female","2182865","690","u","learn","","","learn_trial","23.8209","66.7243","in","1","1","","","","","","","","","","","","","","","","","","","","",""
"","","","","","canvas-keyboard-response","255","435701","0.0-12.0-3.48","2d_cat_multi_stim_exp1","2022-4-5","15:13:9","25","75","3","9","10","40","30","120","14","19","[""Black or African-American"",""White""]","No","Female","2182865","null","null","learn_feedback","","","learn_feedback","23.8209","66.7243","in","","","","","","","","","","","","","","","","","","","","","","",""
"","","","","","canvas-keyboard-response","256","435760","0.0-12.0-4.48","2d_cat_multi_stim_exp1","2022-4-5","15:13:9","25","75","3","9","10","40","30","120","14","19","[""Black or African-American"",""White""]","No","Female","2182865","null","null","","","","clear_screen","","","","","","","","","","","","","","","","","","","","","","","","","",""
"","","","","","canvas-keyboard-response","257","436270","0.0-12.0-0.49","2d_cat_multi_stim_exp1","2022-4-5","15:13:9","25","75","3","9","10","40","30","120","14","19","[""Black or African-American"",""White""]","No","Female","2182865","null","null","","","","fixation","","","","","","","","","","","","","","","","","","","","","","","","","",""
"","","","","","canvas-keyboard-response","258","436779","0.0-12.0-1.49","2d_cat_multi_stim_exp1","2022-4-5","15:13:9","25","75","3","9","10","40","30","120","14","19","[""Black or African-American"",""White""]","No","Female","2182865","null","null","","","","clear_screen","","","","","","","","","","","","","","","","","","","","","","","","","",""
"","","","","","canvas-keyboard-response","259","437375","0.0-12.0-2.49","2d_cat_multi_stim_exp1","2022-4-5","15:13:9","25","75","3","9","10","40","30","120","14","19","[""Black or African-American"",""White""]","No","Female","2182865","585","i","learn","","","learn_trial","33.3333","100","out","0","1","","","","","","","","","","","","","","","","","","","","",""
"","","","","","canvas-keyboard-response","260","437885","0.0-12.0-3.49","2d_cat_multi_stim_exp1","2022-4-5","15:13:9","25","75","3","9","10","40","30","120","14","19","[""Black or African-American"",""White""]","No","Female","2182865","null","null","learn_feedback","","","learn_feedback","33.3333","100","out","","","","","","","","","","","","","","","","","","","","","","",""
"","","","","","canvas-keyboard-response","261","437945","0.0-12.0-4.49","2d_cat_multi_stim_exp1","2022-4-5","15:13:9","25","75","3","9","10","40","30","120","14","19","[""Black or African-American"",""White""]","No","Female","2182865","null","null","","","","clear_screen","","","","","","","","","","","","","","","","","","","","","","","","","",""
"","","","","","canvas-keyboard-response","262","438453","0.0-12.0-0.50","2d_cat_multi_stim_exp1","2022-4-5","15:13:9","25","75","3","9","10","40","30","120","14","19","[""Black or African-American"",""White""]","No","Female","2182865","null","null","","","","fixation","","","","","","","","","","","","","","","","","","","","","","","","","",""
"","","","","","canvas-keyboard-response","263","438964","0.0-12.0-1.50","2d_cat_multi_stim_exp1","2022-4-5","15:13:9","25","75","3","9","10","40","30","120","14","19","[""Black or African-American"",""White""]","No","Female","2182865","null","null","","","","clear_screen","","","","","","","","","","","","","","","","","","","","","","","","","",""
"","","","","","canvas-keyboard-response","264","439416","0.0-12.0-2.50","2d_cat_multi_stim_exp1","2022-4-5","15:13:9","25","75","3","9","10","40","30","120","14","19","[""Black or African-American"",""White""]","No","Female","2182865","441","i","learn","","","learn_trial","26.6667","40","out","0","1","","","","","","","","","","","","","","","","","","","","",""
"","","","","","canvas-keyboard-response","265","439925","0.0-12.0-3.50","2d_cat_multi_stim_exp1","2022-4-5","15:13:9","25","75","3","9","10","40","30","120","14","19","[""Black or African-American"",""White""]","No","Female","2182865","null","null","learn_feedback","","","learn_feedback","26.6667","40","out","","","","","","","","","","","","","","","","","","","","","","",""
"","","","","","canvas-keyboard-response","266","439984","0.0-12.0-4.50","2d_cat_multi_stim_exp1","2022-4-5","15:13:9","25","75","3","9","10","40","30","120","14","19","[""Black or African-American"",""White""]","No","Female","2182865","null","null","","","","clear_screen","","","","","","","","","","","","","","","","","","","","","","","","","",""
"","","","","","canvas-keyboard-response","267","440494","0.0-12.0-0.51","2d_cat_multi_stim_exp1","2022-4-5","15:13:9","25","75","3","9","10","40","30","120","14","19","[""Black or African-American"",""White""]","No","Female","2182865","null","null","","","","fixation","","","","","","","","","","","","","","","","","","","","","","","","","",""
"","","","","","canvas-keyboard-response","268","441002","0.0-12.0-1.51","2d_cat_multi_stim_exp1","2022-4-5","15:13:9","25","75","3","9","10","40","30","120","14","19","[""Black or African-American"",""White""]","No","Female","2182865","null","null","","","","clear_screen","","","","","","","","","","","","","","","","","","","","","","","","","",""
"","","","","","canvas-keyboard-response","269","441864","0.0-12.0-2.51","2d_cat_multi_stim_exp1","2022-4-5","15:13:9","25","75","3","9","10","40","30","120","14","19","[""Black or African-American"",""White""]","No","Female","2182865","852","i","learn","","","learn_trial","40","80","out","0","1","","","","","","","","","","","","","","","","","","","","",""
"","","","","","canvas-keyboard-response","270","442377","0.0-12.0-3.51","2d_cat_multi_stim_exp1","2022-4-5","15:13:9","25","75","3","9","10","40","30","120","14","19","[""Black or African-American"",""White""]","No","Female","2182865","null","null","learn_feedback","","","learn_feedback","40","80","out","","","","","","","","","","","","","","","","","","","","","","",""
"","","","","","canvas-keyboard-response","271","442438","0.0-12.0-4.51","2d_cat_multi_stim_exp1","2022-4-5","15:13:9","25","75","3","9","10","40","30","120","14","19","[""Black or African-American"",""White""]","No","Female","2182865","null","null","","","","clear_screen","","","","","","","","","","","","","","","","","","","","","","","","","",""
"","","","","","canvas-keyboard-response","272","442949","0.0-12.0-0.52","2d_cat_multi_stim_exp1","2022-4-5","15:13:9","25","75","3","9","10","40","30","120","14","19","[""Black or African-American"",""White""]","No","Female","2182865","null","null","","","","fixation","","","","","","","","","","","","","","","","","","","","","","","","","",""
"","","","","","canvas-keyboard-response","273","443460","0.0-12.0-1.52","2d_cat_multi_stim_exp1","2022-4-5","15:13:9","25","75","3","9","10","40","30","120","14","19","[""Black or African-American"",""White""]","No","Female","2182865","null","null","","","","clear_screen","","","","","","","","","","","","","","","","","","","","","","","","","",""
