"success","timeout","failed_images","failed_audio","failed_video","trial_type","trial_index","time_elapsed","internal_node_id","exp_name","date","time","angle_mean_in","radius_mean_in","angle_sd_in","radius_sd_in","angle_min_out","angle_max_out","radius_min_out","radius_max_out","sub_n","age","race","ethnicity","gender","exp_duration","rt","response","exp_trial_type","stimulus","view_history","screen_id","angle","radius","distribution","choice","correct","order","angle_a","radius_a","angle_b","radius_b","jkl_correct","transfer_trial_type","choice_set","abc_correct","tc_correct","tc_angle","tdc_a","tdc_b","tdc_c","pair","category_a","category_b","category_c","angle_c","radius_c","question_order"
"true","false","[]","[]","[]","preload","0","35","0.0-0.0","2d_cat_multi_stim_exp1","2022-4-29","14:11:22","25","75","3","9","10","40","30","120","72","22","[""Asian""]","No","Male","2008959","","","","","","","","","","","","","","","","","","","","","","","","","","","","","","","",""
"","","","","","survey-html-form","1","3271","0.0-1.0","2d_cat_multi_stim_exp1","2022-4-29","14:11:22","25","75","3","9","10","40","30","120","72","22","[""Asian""]","No","Male","2008959","3190","{""response"":""72""}","enter-sub-number","","","","","","","","","","","","","","","","","","","","","","","","","","","","",""
"true","","","","","fullscreen","2","5002","0.0-2.0","2d_cat_multi_stim_exp1","2022-4-29","14:11:22","25","75","3","9","10","40","30","120","72","22","[""Asian""]","No","Male","2008959","","","","","","","","","","","","","","","","","","","","","","","","","","","","","","","",""
"","","","","","image-button-response","3","40329","0.0-3.0","2d_cat_multi_stim_exp1","2022-4-29","14:11:22","25","75","3","9","10","40","30","120","72","22","[""Asian""]","No","Male","2008959","35321","0","","consent.png","","","","","","","","","","","","","","","","","","","","","","","","","","","",""
"","","","","","html-button-response","4","42201","0.0-4.0","2d_cat_multi_stim_exp1","2022-4-29","14:11:22","25","75","3","9","10","40","30","120","72","22","[""Asian""]","No","Male","2008959","1867","0","","<div style= ""font-size:25px;"" <p> <strong> Welcome to the experiment! </strong><br> <p style=""color:#8B0000; font-size:25px;""><strong> Please do NOT exit full screen until you are done with the experiment. </strong> </p><p style=""font-size:25px;color:#8B0000;""> <strong> The experiment will be canceled and your data will be lost <br> if you try to go back or refresh the page at any point during the experiment.</strong> </p><br><p> <strong> Thanks in advance for your contribution to our research! </strong></p>","","","","","","","","","","","","","","","","","","","","","","","","","","","",""
"","","","","","instructions","5","77489","0.0-5.0","2d_cat_multi_stim_exp1","2022-4-29","14:11:22","25","75","3","9","10","40","30","120","72","22","[""Asian""]","No","Male","2008959","35284","","","","[{""page_index"":0,""viewing_time"":5427},{""page_index"":1,""viewing_time"":2105},{""page_index"":2,""viewing_time"":6887},{""page_index"":3,""viewing_time"":20864}]","instructions_1","","","","","","","","","","","","","","","","","","","","","","","","","",""
"","","","","","instructions","6","79801","0.0-6.0","2d_cat_multi_stim_exp1","2022-4-29","14:11:22","25","75","3","9","10","40","30","120","72","22","[""Asian""]","No","Male","2008959","2308","","","","[{""page_index"":0,""viewing_time"":2307}]","Click to see the kinds of turtles that will appear in the study.","","","","","","","","","","","","","","","","","","","","","","","","","",""
"","","","","","canvas-keyboard-response","7","94825","0.0-7.0","2d_cat_multi_stim_exp1","2022-4-29","14:11:22","25","75","3","9","10","40","30","120","72","22","[""Asian""]","No","Male","2008959","null","null","","","","demo_range","","","","","","","","","","","","","","","","","","","","","","","","","",""
"","","","","","instructions","8","97473","0.0-8.0","2d_cat_multi_stim_exp1","2022-4-29","14:11:22","25","75","3","9","10","40","30","120","72","22","[""Asian""]","No","Male","2008959","2146","","","","[{""page_index"":0,""viewing_time"":2145}]","Click to see some turtles in the subspecies.","","","","","","","","","","","","","","","","","","","","","","","","","",""
"","","","","","canvas-keyboard-response","9","112493","0.0-9.0","2d_cat_multi_stim_exp1","2022-4-29","14:11:22","25","75","3","9","10","40","30","120","72","22","[""Asian""]","No","Male","2008959","null","null","","","","demo_in","","","","","","","","","","","","","","","","","","","","","","","","","",""
"","","","","","instructions","10","140377","0.0-10.0","2d_cat_multi_stim_exp1","2022-4-29","14:11:22","25","75","3","9","10","40","30","120","72","22","[""Asian""]","No","Male","2008959","27383","","","","[{""page_index"":0,""viewing_time"":5342},{""page_index"":1,""viewing_time"":18471},{""page_index"":2,""viewing_time"":3569}]","instructions_2","","","","","","","","","","","","","","","","","","","","","","","","","",""
"","","","","","instructions","11","142481","0.0-11.0","2d_cat_multi_stim_exp1","2022-4-29","14:11:22","25","75","3","9","10","40","30","120","72","22","[""Asian""]","No","Male","2008959","2102","","","","[{""page_index"":0,""viewing_time"":2101}]","Click to begin the first phase of the experiment.","","","","","","","","","","","","","","","","","","","","","","","","","",""
"","","","","","canvas-keyboard-response","12","142991","0.0-12.0-0.0","2d_cat_multi_stim_exp1","2022-4-29","14:11:22","25","75","3","9","10","40","30","120","72","22","[""Asian""]","No","Male","2008959","null","null","","","","fixation","","","","","","","","","","","","","","","","","","","","","","","","","",""
"","","","","","canvas-keyboard-response","13","143499","0.0-12.0-1.0","2d_cat_multi_stim_exp1","2022-4-29","14:11:22","25","75","3","9","10","40","30","120","72","22","[""Asian""]","No","Male","2008959","null","null","","","","clear_screen","","","","","","","","","","","","","","","","","","","","","","","","","",""
"","","","","","canvas-keyboard-response","14","145494","0.0-12.0-2.0","2d_cat_multi_stim_exp1","2022-4-29","14:11:22","25","75","3","9","10","40","30","120","72","22","[""Asian""]","No","Male","2008959","1982","i","learn","","","learn_trial","33.3333","90","out","0","1","","","","","","","","","","","","","","","","","","","","",""
"","","","","","canvas-keyboard-response","15","146010","0.0-12.0-3.0","2d_cat_multi_stim_exp1","2022-4-29","14:11:22","25","75","3","9","10","40","30","120","72","22","[""Asian""]","No","Male","2008959","null","null","learn_feedback","","","learn_feedback","33.3333","90","out","","","","","","","","","","","","","","","","","","","","","","",""
"","","","","","canvas-keyboard-response","16","146069","0.0-12.0-4.0","2d_cat_multi_stim_exp1","2022-4-29","14:11:22","25","75","3","9","10","40","30","120","72","22","[""Asian""]","No","Male","2008959","null","null","","","","clear_screen","","","","","","","","","","","","","","","","","","","","","","","","","",""
"","","","","","canvas-keyboard-response","17","146579","0.0-12.0-0.1","2d_cat_multi_stim_exp1","2022-4-29","14:11:22","25","75","3","9","10","40","30","120","72","22","[""Asian""]","No","Male","2008959","null","null","","","","fixation","","","","","","","","","","","","","","","","","","","","","","","","","",""
"","","","","","canvas-keyboard-response","18","147089","0.0-12.0-1.1","2d_cat_multi_stim_exp1","2022-4-29","14:11:22","25","75","3","9","10","40","30","120","72","22","[""Asian""]","No","Male","2008959","null","null","","","","clear_screen","","","","","","","","","","","","","","","","","","","","","","","","","",""
"","","","","","canvas-keyboard-response","19","149318","0.0-12.0-2.1","2d_cat_multi_stim_exp1","2022-4-29","14:11:22","25","75","3","9","10","40","30","120","72","22","[""Asian""]","No","Male","2008959","2218","u","learn","","","learn_trial","27.9518","73.393","in","1","1","","","","","","","","","","","","","","","","","","","","",""
"","","","","","canvas-keyboard-response","20","149828","0.0-12.0-3.1","2d_cat_multi_stim_exp1","2022-4-29","14:11:22","25","75","3","9","10","40","30","120","72","22","[""Asian""]","No","Male","2008959","null","null","learn_feedback","","","learn_feedback","27.9518","73.393","in","","","","","","","","","","","","","","","","","","","","","","",""
"","","","","","canvas-keyboard-response","21","149888","0.0-12.0-4.1","2d_cat_multi_stim_exp1","2022-4-29","14:11:22","25","75","3","9","10","40","30","120","72","22","[""Asian""]","No","Male","2008959","null","null","","","","clear_screen","","","","","","","","","","","","","","","","","","","","","","","","","",""
"","","","","","canvas-keyboard-response","22","150397","0.0-12.0-0.2","2d_cat_multi_stim_exp1","2022-4-29","14:11:22","25","75","3","9","10","40","30","120","72","22","[""Asian""]","No","Male","2008959","null","null","","","","fixation","","","","","","","","","","","","","","","","","","","","","","","","","",""
"","","","","","canvas-keyboard-response","23","150908","0.0-12.0-1.2","2d_cat_multi_stim_exp1","2022-4-29","14:11:22","25","75","3","9","10","40","30","120","72","22","[""Asian""]","No","Male","2008959","null","null","","","","clear_screen","","","","","","","","","","","","","","","","","","","","","","","","","",""
"","","","","","canvas-keyboard-response","24","152478","0.0-12.0-2.2","2d_cat_multi_stim_exp1","2022-4-29","14:11:22","25","75","3","9","10","40","30","120","72","22","[""Asian""]","No","Male","2008959","1561","u","learn","","","learn_trial","25","75","in","1","1","","","","","","","","","","","","","","","","","","","","",""
"","","","","","canvas-keyboard-response","25","152988","0.0-12.0-3.2","2d_cat_multi_stim_exp1","2022-4-29","14:11:22","25","75","3","9","10","40","30","120","72","22","[""Asian""]","No","Male","2008959","null","null","learn_feedback","","","learn_feedback","25","75","in","","","","","","","","","","","","","","","","","","","","","","",""
"","","","","","canvas-keyboard-response","26","153046","0.0-12.0-4.2","2d_cat_multi_stim_exp1","2022-4-29","14:11:22","25","75","3","9","10","40","30","120","72","22","[""Asian""]","No","Male","2008959","null","null","","","","clear_screen","","","","","","","","","","","","","","","","","","","","","","","","","",""
"","","","","","canvas-keyboard-response","27","153557","0.0-12.0-0.3","2d_cat_multi_stim_exp1","2022-4-29","14:11:22","25","75","3","9","10","40","30","120","72","22","[""Asian""]","No","Male","2008959","null","null","","","","fixation","","","","","","","","","","","","","","","","","","","","","","","","","",""
"","","","","","canvas-keyboard-response","28","154066","0.0-12.0-1.3","2d_cat_multi_stim_exp1","2022-4-29","14:11:22","25","75","3","9","10","40","30","120","72","22","[""Asian""]","No","Male","2008959","null","null","","","","clear_screen","","","","","","","","","","","","","","","","","","","","","","","","","",""
"","","","","","canvas-keyboard-response","29","155030","0.0-12.0-2.3","2d_cat_multi_stim_exp1","2022-4-29","14:11:22","25","75","3","9","10","40","30","120","72","22","[""Asian""]","No","Male","2008959","953","u","learn","","","learn_trial","25","75","in","1","1","","","","","","","","","","","","","","","","","","","","",""
"","","","","","canvas-keyboard-response","30","155540","0.0-12.0-3.3","2d_cat_multi_stim_exp1","2022-4-29","14:11:22","25","75","3","9","10","40","30","120","72","22","[""Asian""]","No","Male","2008959","null","null","learn_feedback","","","learn_feedback","25","75","in","","","","","","","","","","","","","","","","","","","","","","",""
"","","","","","canvas-keyboard-response","31","155601","0.0-12.0-4.3","2d_cat_multi_stim_exp1","2022-4-29","14:11:22","25","75","3","9","10","40","30","120","72","22","[""Asian""]","No","Male","2008959","null","null","","","","clear_screen","","","","","","","","","","","","","","","","","","","","","","","","","",""
"","","","","","canvas-keyboard-response","32","156112","0.0-12.0-0.4","2d_cat_multi_stim_exp1","2022-4-29","14:11:22","25","75","3","9","10","40","30","120","72","22","[""Asian""]","No","Male","2008959","null","null","","","","fixation","","","","","","","","","","","","","","","","","","","","","","","","","",""
"","","","","","canvas-keyboard-response","33","156622","0.0-12.0-1.4","2d_cat_multi_stim_exp1","2022-4-29","14:11:22","25","75","3","9","10","40","30","120","72","22","[""Asian""]","No","Male","2008959","null","null","","","","clear_screen","","","","","","","","","","","","","","","","","","","","","","","","","",""
"","","","","","canvas-keyboard-response","34","157502","0.0-12.0-2.4","2d_cat_multi_stim_exp1","2022-4-29","14:11:22","25","75","3","9","10","40","30","120","72","22","[""Asian""]","No","Male","2008959","869","i","learn","","","learn_trial","16.6667","30","out","0","1","","","","","","","","","","","","","","","","","","","","",""
"","","","","","canvas-keyboard-response","35","158012","0.0-12.0-3.4","2d_cat_multi_stim_exp1","2022-4-29","14:11:22","25","75","3","9","10","40","30","120","72","22","[""Asian""]","No","Male","2008959","null","null","learn_feedback","","","learn_feedback","16.6667","30","out","","","","","","","","","","","","","","","","","","","","","","",""
"","","","","","canvas-keyboard-response","36","158071","0.0-12.0-4.4","2d_cat_multi_stim_exp1","2022-4-29","14:11:22","25","75","3","9","10","40","30","120","72","22","[""Asian""]","No","Male","2008959","null","null","","","","clear_screen","","","","","","","","","","","","","","","","","","","","","","","","","",""
"","","","","","canvas-keyboard-response","37","158581","0.0-12.0-0.5","2d_cat_multi_stim_exp1","2022-4-29","14:11:22","25","75","3","9","10","40","30","120","72","22","[""Asian""]","No","Male","2008959","null","null","","","","fixation","","","","","","","","","","","","","","","","","","","","","","","","","",""
"","","","","","canvas-keyboard-response","38","159091","0.0-12.0-1.5","2d_cat_multi_stim_exp1","2022-4-29","14:11:22","25","75","3","9","10","40","30","120","72","22","[""Asian""]","No","Male","2008959","null","null","","","","clear_screen","","","","","","","","","","","","","","","","","","","","","","","","","",""
"","","","","","canvas-keyboard-response","39","159999","0.0-12.0-2.5","2d_cat_multi_stim_exp1","2022-4-29","14:11:22","25","75","3","9","10","40","30","120","72","22","[""Asian""]","No","Male","2008959","898","i","learn","","","learn_trial","40","90","out","0","1","","","","","","","","","","","","","","","","","","","","",""
"","","","","","canvas-keyboard-response","40","160511","0.0-12.0-3.5","2d_cat_multi_stim_exp1","2022-4-29","14:11:22","25","75","3","9","10","40","30","120","72","22","[""Asian""]","No","Male","2008959","null","null","learn_feedback","","","learn_feedback","40","90","out","","","","","","","","","","","","","","","","","","","","","","",""
"","","","","","canvas-keyboard-response","41","160571","0.0-12.0-4.5","2d_cat_multi_stim_exp1","2022-4-29","14:11:22","25","75","3","9","10","40","30","120","72","22","[""Asian""]","No","Male","2008959","null","null","","","","clear_screen","","","","","","","","","","","","","","","","","","","","","","","","","",""
"","","","","","canvas-keyboard-response","42","161081","0.0-12.0-0.6","2d_cat_multi_stim_exp1","2022-4-29","14:11:22","25","75","3","9","10","40","30","120","72","22","[""Asian""]","No","Male","2008959","null","null","","","","fixation","","","","","","","","","","","","","","","","","","","","","","","","","",""
"","","","","","canvas-keyboard-response","43","161591","0.0-12.0-1.6","2d_cat_multi_stim_exp1","2022-4-29","14:11:22","25","75","3","9","10","40","30","120","72","22","[""Asian""]","No","Male","2008959","null","null","","","","clear_screen","","","","","","","","","","","","","","","","","","","","","","","","","",""
"","","","","","canvas-keyboard-response","44","162654","0.0-12.0-2.6","2d_cat_multi_stim_exp1","2022-4-29","14:11:22","25","75","3","9","10","40","30","120","72","22","[""Asian""]","No","Male","2008959","1054","u","learn","","","learn_trial","25","75","in","1","1","","","","","","","","","","","","","","","","","","","","",""
"","","","","","canvas-keyboard-response","45","163164","0.0-12.0-3.6","2d_cat_multi_stim_exp1","2022-4-29","14:11:22","25","75","3","9","10","40","30","120","72","22","[""Asian""]","No","Male","2008959","null","null","learn_feedback","","","learn_feedback","25","75","in","","","","","","","","","","","","","","","","","","","","","","",""
"","","","","","canvas-keyboard-response","46","163223","0.0-12.0-4.6","2d_cat_multi_stim_exp1","2022-4-29","14:11:22","25","75","3","9","10","40","30","120","72","22","[""Asian""]","No","Male","2008959","null","null","","","","clear_screen","","","","","","","","","","","","","","","","","","","","","","","","","",""
"","","","","","canvas-keyboard-response","47","163733","0.0-12.0-0.7","2d_cat_multi_stim_exp1","2022-4-29","14:11:22","25","75","3","9","10","40","30","120","72","22","[""Asian""]","No","Male","2008959","null","null","","","","fixation","","","","","","","","","","","","","","","","","","","","","","","","","",""
"","","","","","canvas-keyboard-response","48","164243","0.0-12.0-1.7","2d_cat_multi_stim_exp1","2022-4-29","14:11:22","25","75","3","9","10","40","30","120","72","22","[""Asian""]","No","Male","2008959","null","null","","","","clear_screen","","","","","","","","","","","","","","","","","","","","","","","","","",""
"","","","","","canvas-keyboard-response","49","165246","0.0-12.0-2.7","2d_cat_multi_stim_exp1","2022-4-29","14:11:22","25","75","3","9","10","40","30","120","72","22","[""Asian""]","No","Male","2008959","993","u","learn","","","learn_trial","25","75","in","1","1","","","","","","","","","","","","","","","","","","","","",""
"","","","","","canvas-keyboard-response","50","165756","0.0-12.0-3.7","2d_cat_multi_stim_exp1","2022-4-29","14:11:22","25","75","3","9","10","40","30","120","72","22","[""Asian""]","No","Male","2008959","null","null","learn_feedback","","","learn_feedback","25","75","in","","","","","","","","","","","","","","","","","","","","","","",""
"","","","","","canvas-keyboard-response","51","165816","0.0-12.0-4.7","2d_cat_multi_stim_exp1","2022-4-29","14:11:22","25","75","3","9","10","40","30","120","72","22","[""Asian""]","No","Male","2008959","null","null","","","","clear_screen","","","","","","","","","","","","","","","","","","","","","","","","","",""
"","","","","","canvas-keyboard-response","52","166325","0.0-12.0-0.8","2d_cat_multi_stim_exp1","2022-4-29","14:11:22","25","75","3","9","10","40","30","120","72","22","[""Asian""]","No","Male","2008959","null","null","","","","fixation","","","","","","","","","","","","","","","","","","","","","","","","","",""
"","","","","","canvas-keyboard-response","53","166835","0.0-12.0-1.8","2d_cat_multi_stim_exp1","2022-4-29","14:11:22","25","75","3","9","10","40","30","120","72","22","[""Asian""]","No","Male","2008959","null","null","","","","clear_screen","","","","","","","","","","","","","","","","","","","","","","","","","",""
"","","","","","canvas-keyboard-response","54","167887","0.0-12.0-2.8","2d_cat_multi_stim_exp1","2022-4-29","14:11:22","25","75","3","9","10","40","30","120","72","22","[""Asian""]","No","Male","2008959","1043","i","learn","","","learn_trial","16.6667","70","out","0","1","","","","","","","","","","","","","","","","","","","","",""
"","","","","","canvas-keyboard-response","55","168395","0.0-12.0-3.8","2d_cat_multi_stim_exp1","2022-4-29","14:11:22","25","75","3","9","10","40","30","120","72","22","[""Asian""]","No","Male","2008959","null","null","learn_feedback","","","learn_feedback","16.6667","70","out","","","","","","","","","","","","","","","","","","","","","","",""
"","","","","","canvas-keyboard-response","56","168455","0.0-12.0-4.8","2d_cat_multi_stim_exp1","2022-4-29","14:11:22","25","75","3","9","10","40","30","120","72","22","[""Asian""]","No","Male","2008959","null","null","","","","clear_screen","","","","","","","","","","","","","","","","","","","","","","","","","",""
"","","","","","canvas-keyboard-response","57","168964","0.0-12.0-0.9","2d_cat_multi_stim_exp1","2022-4-29","14:11:22","25","75","3","9","10","40","30","120","72","22","[""Asian""]","No","Male","2008959","null","null","","","","fixation","","","","","","","","","","","","","","","","","","","","","","","","","",""
"","","","","","canvas-keyboard-response","58","169473","0.0-12.0-1.9","2d_cat_multi_stim_exp1","2022-4-29","14:11:22","25","75","3","9","10","40","30","120","72","22","[""Asian""]","No","Male","2008959","null","null","","","","clear_screen","","","","","","","","","","","","","","","","","","","","","","","","","",""
"","","","","","canvas-keyboard-response","59","170109","0.0-12.0-2.9","2d_cat_multi_stim_exp1","2022-4-29","14:11:22","25","75","3","9","10","40","30","120","72","22","[""Asian""]","No","Male","2008959","627","i","learn","","","learn_trial","10","70","out","0","1","","","","","","","","","","","","","","","","","","","","",""
"","","","","","canvas-keyboard-response","60","170620","0.0-12.0-3.9","2d_cat_multi_stim_exp1","2022-4-29","14:11:22","25","75","3","9","10","40","30","120","72","22","[""Asian""]","No","Male","2008959","null","null","learn_feedback","","","learn_feedback","10","70","out","","","","","","","","","","","","","","","","","","","","","","",""
"","","","","","canvas-keyboard-response","61","170679","0.0-12.0-4.9","2d_cat_multi_stim_exp1","2022-4-29","14:11:22","25","75","3","9","10","40","30","120","72","22","[""Asian""]","No","Male","2008959","null","null","","","","clear_screen","","","","","","","","","","","","","","","","","","","","","","","","","",""
"","","","","","canvas-keyboard-response","62","171188","0.0-12.0-0.10","2d_cat_multi_stim_exp1","2022-4-29","14:11:22","25","75","3","9","10","40","30","120","72","22","[""Asian""]","No","Male","2008959","null","null","","","","fixation","","","","","","","","","","","","","","","","","","","","","","","","","",""
"","","","","","canvas-keyboard-response","63","171697","0.0-12.0-1.10","2d_cat_multi_stim_exp1","2022-4-29","14:11:22","25","75","3","9","10","40","30","120","72","22","[""Asian""]","No","Male","2008959","null","null","","","","clear_screen","","","","","","","","","","","","","","","","","","","","","","","","","",""
"","","","","","canvas-keyboard-response","64","172583","0.0-12.0-2.10","2d_cat_multi_stim_exp1","2022-4-29","14:11:22","25","75","3","9","10","40","30","120","72","22","[""Asian""]","No","Male","2008959","875","u","learn","","","learn_trial","25","75","in","1","1","","","","","","","","","","","","","","","","","","","","",""
"","","","","","canvas-keyboard-response","65","173092","0.0-12.0-3.10","2d_cat_multi_stim_exp1","2022-4-29","14:11:22","25","75","3","9","10","40","30","120","72","22","[""Asian""]","No","Male","2008959","null","null","learn_feedback","","","learn_feedback","25","75","in","","","","","","","","","","","","","","","","","","","","","","",""
"","","","","","canvas-keyboard-response","66","173152","0.0-12.0-4.10","2d_cat_multi_stim_exp1","2022-4-29","14:11:22","25","75","3","9","10","40","30","120","72","22","[""Asian""]","No","Male","2008959","null","null","","","","clear_screen","","","","","","","","","","","","","","","","","","","","","","","","","",""
"","","","","","canvas-keyboard-response","67","173661","0.0-12.0-0.11","2d_cat_multi_stim_exp1","2022-4-29","14:11:22","25","75","3","9","10","40","30","120","72","22","[""Asian""]","No","Male","2008959","null","null","","","","fixation","","","","","","","","","","","","","","","","","","","","","","","","","",""
"","","","","","canvas-keyboard-response","68","174170","0.0-12.0-1.11","2d_cat_multi_stim_exp1","2022-4-29","14:11:22","25","75","3","9","10","40","30","120","72","22","[""Asian""]","No","Male","2008959","null","null","","","","clear_screen","","","","","","","","","","","","","","","","","","","","","","","","","",""
"","","","","","canvas-keyboard-response","69","175630","0.0-12.0-2.11","2d_cat_multi_stim_exp1","2022-4-29","14:11:22","25","75","3","9","10","40","30","120","72","22","[""Asian""]","No","Male","2008959","1450","u","learn","","","learn_trial","25","75","in","1","1","","","","","","","","","","","","","","","","","","","","",""
"","","","","","canvas-keyboard-response","70","176139","0.0-12.0-3.11","2d_cat_multi_stim_exp1","2022-4-29","14:11:22","25","75","3","9","10","40","30","120","72","22","[""Asian""]","No","Male","2008959","null","null","learn_feedback","","","learn_feedback","25","75","in","","","","","","","","","","","","","","","","","","","","","","",""
"","","","","","canvas-keyboard-response","71","176198","0.0-12.0-4.11","2d_cat_multi_stim_exp1","2022-4-29","14:11:22","25","75","3","9","10","40","30","120","72","22","[""Asian""]","No","Male","2008959","null","null","","","","clear_screen","","","","","","","","","","","","","","","","","","","","","","","","","",""
"","","","","","canvas-keyboard-response","72","176708","0.0-12.0-0.12","2d_cat_multi_stim_exp1","2022-4-29","14:11:22","25","75","3","9","10","40","30","120","72","22","[""Asian""]","No","Male","2008959","null","null","","","","fixation","","","","","","","","","","","","","","","","","","","","","","","","","",""
"","","","","","canvas-keyboard-response","73","177217","0.0-12.0-1.12","2d_cat_multi_stim_exp1","2022-4-29","14:11:22","25","75","3","9","10","40","30","120","72","22","[""Asian""]","No","Male","2008959","null","null","","","","clear_screen","","","","","","","","","","","","","","","","","","","","","","","","","",""
"","","","","","canvas-keyboard-response","74","178158","0.0-12.0-2.12","2d_cat_multi_stim_exp1","2022-4-29","14:11:22","25","75","3","9","10","40","30","120","72","22","[""Asian""]","No","Male","2008959","931","i","learn","","","learn_trial","40","70","out","0","1","","","","","","","","","","","","","","","","","","","","",""
"","","","","","canvas-keyboard-response","75","178668","0.0-12.0-3.12","2d_cat_multi_stim_exp1","2022-4-29","14:11:22","25","75","3","9","10","40","30","120","72","22","[""Asian""]","No","Male","2008959","null","null","learn_feedback","","","learn_feedback","40","70","out","","","","","","","","","","","","","","","","","","","","","","",""
"","","","","","canvas-keyboard-response","76","178725","0.0-12.0-4.12","2d_cat_multi_stim_exp1","2022-4-29","14:11:22","25","75","3","9","10","40","30","120","72","22","[""Asian""]","No","Male","2008959","null","null","","","","clear_screen","","","","","","","","","","","","","","","","","","","","","","","","","",""
"","","","","","canvas-keyboard-response","77","179234","0.0-12.0-0.13","2d_cat_multi_stim_exp1","2022-4-29","14:11:22","25","75","3","9","10","40","30","120","72","22","[""Asian""]","No","Male","2008959","null","null","","","","fixation","","","","","","","","","","","","","","","","","","","","","","","","","",""
"","","","","","canvas-keyboard-response","78","179744","0.0-12.0-1.13","2d_cat_multi_stim_exp1","2022-4-29","14:11:22","25","75","3","9","10","40","30","120","72","22","[""Asian""]","No","Male","2008959","null","null","","","","clear_screen","","","","","","","","","","","","","","","","","","","","","","","","","",""
"","","","","","canvas-keyboard-response","79","180566","0.0-12.0-2.13","2d_cat_multi_stim_exp1","2022-4-29","14:11:22","25","75","3","9","10","40","30","120","72","22","[""Asian""]","No","Male","2008959","812","u","learn","","","learn_trial","25","75","in","1","1","","","","","","","","","","","","","","","","","","","","",""
"","","","","","canvas-keyboard-response","80","181075","0.0-12.0-3.13","2d_cat_multi_stim_exp1","2022-4-29","14:11:22","25","75","3","9","10","40","30","120","72","22","[""Asian""]","No","Male","2008959","null","null","learn_feedback","","","learn_feedback","25","75","in","","","","","","","","","","","","","","","","","","","","","","",""
"","","","","","canvas-keyboard-response","81","181135","0.0-12.0-4.13","2d_cat_multi_stim_exp1","2022-4-29","14:11:22","25","75","3","9","10","40","30","120","72","22","[""Asian""]","No","Male","2008959","null","null","","","","clear_screen","","","","","","","","","","","","","","","","","","","","","","","","","",""
"","","","","","canvas-keyboard-response","82","181643","0.0-12.0-0.14","2d_cat_multi_stim_exp1","2022-4-29","14:11:22","25","75","3","9","10","40","30","120","72","22","[""Asian""]","No","Male","2008959","null","null","","","","fixation","","","","","","","","","","","","","","","","","","","","","","","","","",""
"","","","","","canvas-keyboard-response","83","182153","0.0-12.0-1.14","2d_cat_multi_stim_exp1","2022-4-29","14:11:22","25","75","3","9","10","40","30","120","72","22","[""Asian""]","No","Male","2008959","null","null","","","","clear_screen","","","","","","","","","","","","","","","","","","","","","","","","","",""
"","","","","","canvas-keyboard-response","84","184430","0.0-12.0-2.14","2d_cat_multi_stim_exp1","2022-4-29","14:11:22","25","75","3","9","10","40","30","120","72","22","[""Asian""]","No","Male","2008959","2266","u","learn","","","learn_trial","25.9271","66.4405","in","1","1","","","","","","","","","","","","","","","","","","","","",""
"","","","","","canvas-keyboard-response","85","184939","0.0-12.0-3.14","2d_cat_multi_stim_exp1","2022-4-29","14:11:22","25","75","3","9","10","40","30","120","72","22","[""Asian""]","No","Male","2008959","null","null","learn_feedback","","","learn_feedback","25.9271","66.4405","in","","","","","","","","","","","","","","","","","","","","","","",""
"","","","","","canvas-keyboard-response","86","184998","0.0-12.0-4.14","2d_cat_multi_stim_exp1","2022-4-29","14:11:22","25","75","3","9","10","40","30","120","72","22","[""Asian""]","No","Male","2008959","null","null","","","","clear_screen","","","","","","","","","","","","","","","","","","","","","","","","","",""
"","","","","","canvas-keyboard-response","87","185507","0.0-12.0-0.15","2d_cat_multi_stim_exp1","2022-4-29","14:11:22","25","75","3","9","10","40","30","120","72","22","[""Asian""]","No","Male","2008959","null","null","","","","fixation","","","","","","","","","","","","","","","","","","","","","","","","","",""
"","","","","","canvas-keyboard-response","88","186016","0.0-12.0-1.15","2d_cat_multi_stim_exp1","2022-4-29","14:11:22","25","75","3","9","10","40","30","120","72","22","[""Asian""]","No","Male","2008959","null","null","","","","clear_screen","","","","","","","","","","","","","","","","","","","","","","","","","",""
"","","","","","canvas-keyboard-response","89","187006","0.0-12.0-2.15","2d_cat_multi_stim_exp1","2022-4-29","14:11:22","25","75","3","9","10","40","30","120","72","22","[""Asian""]","No","Male","2008959","979","u","learn","","","learn_trial","25","75","in","1","1","","","","","","","","","","","","","","","","","","","","",""
"","","","","","canvas-keyboard-response","90","187515","0.0-12.0-3.15","2d_cat_multi_stim_exp1","2022-4-29","14:11:22","25","75","3","9","10","40","30","120","72","22","[""Asian""]","No","Male","2008959","null","null","learn_feedback","","","learn_feedback","25","75","in","","","","","","","","","","","","","","","","","","","","","","",""
"","","","","","canvas-keyboard-response","91","187574","0.0-12.0-4.15","2d_cat_multi_stim_exp1","2022-4-29","14:11:22","25","75","3","9","10","40","30","120","72","22","[""Asian""]","No","Male","2008959","null","null","","","","clear_screen","","","","","","","","","","","","","","","","","","","","","","","","","",""
"","","","","","canvas-keyboard-response","92","188082","0.0-12.0-0.16","2d_cat_multi_stim_exp1","2022-4-29","14:11:22","25","75","3","9","10","40","30","120","72","22","[""Asian""]","No","Male","2008959","null","null","","","","fixation","","","","","","","","","","","","","","","","","","","","","","","","","",""
"","","","","","canvas-keyboard-response","93","188593","0.0-12.0-1.16","2d_cat_multi_stim_exp1","2022-4-29","14:11:22","25","75","3","9","10","40","30","120","72","22","[""Asian""]","No","Male","2008959","null","null","","","","clear_screen","","","","","","","","","","","","","","","","","","","","","","","","","",""
"","","","","","canvas-keyboard-response","94","189389","0.0-12.0-2.16","2d_cat_multi_stim_exp1","2022-4-29","14:11:22","25","75","3","9","10","40","30","120","72","22","[""Asian""]","No","Male","2008959","783","u","learn","","","learn_trial","25","75","in","1","1","","","","","","","","","","","","","","","","","","","","",""
"","","","","","canvas-keyboard-response","95","189901","0.0-12.0-3.16","2d_cat_multi_stim_exp1","2022-4-29","14:11:22","25","75","3","9","10","40","30","120","72","22","[""Asian""]","No","Male","2008959","null","null","learn_feedback","","","learn_feedback","25","75","in","","","","","","","","","","","","","","","","","","","","","","",""
"","","","","","canvas-keyboard-response","96","189959","0.0-12.0-4.16","2d_cat_multi_stim_exp1","2022-4-29","14:11:22","25","75","3","9","10","40","30","120","72","22","[""Asian""]","No","Male","2008959","null","null","","","","clear_screen","","","","","","","","","","","","","","","","","","","","","","","","","",""
"","","","","","canvas-keyboard-response","97","190468","0.0-12.0-0.17","2d_cat_multi_stim_exp1","2022-4-29","14:11:22","25","75","3","9","10","40","30","120","72","22","[""Asian""]","No","Male","2008959","null","null","","","","fixation","","","","","","","","","","","","","","","","","","","","","","","","","",""
"","","","","","canvas-keyboard-response","98","190977","0.0-12.0-1.17","2d_cat_multi_stim_exp1","2022-4-29","14:11:22","25","75","3","9","10","40","30","120","72","22","[""Asian""]","No","Male","2008959","null","null","","","","clear_screen","","","","","","","","","","","","","","","","","","","","","","","","","",""
"","","","","","canvas-keyboard-response","99","191541","0.0-12.0-2.17","2d_cat_multi_stim_exp1","2022-4-29","14:11:22","25","75","3","9","10","40","30","120","72","22","[""Asian""]","No","Male","2008959","553","u","learn","","","learn_trial","25","75","in","1","1","","","","","","","","","","","","","","","","","","","","",""
"","","","","","canvas-keyboard-response","100","192050","0.0-12.0-3.17","2d_cat_multi_stim_exp1","2022-4-29","14:11:22","25","75","3","9","10","40","30","120","72","22","[""Asian""]","No","Male","2008959","null","null","learn_feedback","","","learn_feedback","25","75","in","","","","","","","","","","","","","","","","","","","","","","",""
"","","","","","canvas-keyboard-response","101","192109","0.0-12.0-4.17","2d_cat_multi_stim_exp1","2022-4-29","14:11:22","25","75","3","9","10","40","30","120","72","22","[""Asian""]","No","Male","2008959","null","null","","","","clear_screen","","","","","","","","","","","","","","","","","","","","","","","","","",""
"","","","","","canvas-keyboard-response","102","192618","0.0-12.0-0.18","2d_cat_multi_stim_exp1","2022-4-29","14:11:22","25","75","3","9","10","40","30","120","72","22","[""Asian""]","No","Male","2008959","null","null","","","","fixation","","","","","","","","","","","","","","","","","","","","","","","","","",""
"","","","","","canvas-keyboard-response","103","193128","0.0-12.0-1.18","2d_cat_multi_stim_exp1","2022-4-29","14:11:22","25","75","3","9","10","40","30","120","72","22","[""Asian""]","No","Male","2008959","null","null","","","","clear_screen","","","","","","","","","","","","","","","","","","","","","","","","","",""
"","","","","","canvas-keyboard-response","104","193773","0.0-12.0-2.18","2d_cat_multi_stim_exp1","2022-4-29","14:11:22","25","75","3","9","10","40","30","120","72","22","[""Asian""]","No","Male","2008959","636","i","learn","","","learn_trial","36.6667","40","out","0","1","","","","","","","","","","","","","","","","","","","","",""
"","","","","","canvas-keyboard-response","105","194283","0.0-12.0-3.18","2d_cat_multi_stim_exp1","2022-4-29","14:11:22","25","75","3","9","10","40","30","120","72","22","[""Asian""]","No","Male","2008959","null","null","learn_feedback","","","learn_feedback","36.6667","40","out","","","","","","","","","","","","","","","","","","","","","","",""
"","","","","","canvas-keyboard-response","106","194342","0.0-12.0-4.18","2d_cat_multi_stim_exp1","2022-4-29","14:11:22","25","75","3","9","10","40","30","120","72","22","[""Asian""]","No","Male","2008959","null","null","","","","clear_screen","","","","","","","","","","","","","","","","","","","","","","","","","",""
"","","","","","canvas-keyboard-response","107","194850","0.0-12.0-0.19","2d_cat_multi_stim_exp1","2022-4-29","14:11:22","25","75","3","9","10","40","30","120","72","22","[""Asian""]","No","Male","2008959","null","null","","","","fixation","","","","","","","","","","","","","","","","","","","","","","","","","",""
"","","","","","canvas-keyboard-response","108","195360","0.0-12.0-1.19","2d_cat_multi_stim_exp1","2022-4-29","14:11:22","25","75","3","9","10","40","30","120","72","22","[""Asian""]","No","Male","2008959","null","null","","","","clear_screen","","","","","","","","","","","","","","","","","","","","","","","","","",""
"","","","","","canvas-keyboard-response","109","195982","0.0-12.0-2.19","2d_cat_multi_stim_exp1","2022-4-29","14:11:22","25","75","3","9","10","40","30","120","72","22","[""Asian""]","No","Male","2008959","610","u","learn","","","learn_trial","25","75","in","1","1","","","","","","","","","","","","","","","","","","","","",""
"","","","","","canvas-keyboard-response","110","196492","0.0-12.0-3.19","2d_cat_multi_stim_exp1","2022-4-29","14:11:22","25","75","3","9","10","40","30","120","72","22","[""Asian""]","No","Male","2008959","null","null","learn_feedback","","","learn_feedback","25","75","in","","","","","","","","","","","","","","","","","","","","","","",""
"","","","","","canvas-keyboard-response","111","196551","0.0-12.0-4.19","2d_cat_multi_stim_exp1","2022-4-29","14:11:22","25","75","3","9","10","40","30","120","72","22","[""Asian""]","No","Male","2008959","null","null","","","","clear_screen","","","","","","","","","","","","","","","","","","","","","","","","","",""
"","","","","","canvas-keyboard-response","112","197060","0.0-12.0-0.20","2d_cat_multi_stim_exp1","2022-4-29","14:11:22","25","75","3","9","10","40","30","120","72","22","[""Asian""]","No","Male","2008959","null","null","","","","fixation","","","","","","","","","","","","","","","","","","","","","","","","","",""
"","","","","","canvas-keyboard-response","113","197570","0.0-12.0-1.20","2d_cat_multi_stim_exp1","2022-4-29","14:11:22","25","75","3","9","10","40","30","120","72","22","[""Asian""]","No","Male","2008959","null","null","","","","clear_screen","","","","","","","","","","","","","","","","","","","","","","","","","",""
"","","","","","canvas-keyboard-response","114","198174","0.0-12.0-2.20","2d_cat_multi_stim_exp1","2022-4-29","14:11:22","25","75","3","9","10","40","30","120","72","22","[""Asian""]","No","Male","2008959","593","u","learn","","","learn_trial","23.3333","60","out","1","0","","","","","","","","","","","","","","","","","","","","",""
"","","","","","canvas-keyboard-response","115","199185","0.0-12.0-3.20","2d_cat_multi_stim_exp1","2022-4-29","14:11:22","25","75","3","9","10","40","30","120","72","22","[""Asian""]","No","Male","2008959","null","null","learn_feedback","","","learn_feedback","23.3333","60","out","","","","","","","","","","","","","","","","","","","","","","",""
"","","","","","canvas-keyboard-response","116","199243","0.0-12.0-4.20","2d_cat_multi_stim_exp1","2022-4-29","14:11:22","25","75","3","9","10","40","30","120","72","22","[""Asian""]","No","Male","2008959","null","null","","","","clear_screen","","","","","","","","","","","","","","","","","","","","","","","","","",""
"","","","","","canvas-keyboard-response","117","199752","0.0-12.0-0.21","2d_cat_multi_stim_exp1","2022-4-29","14:11:22","25","75","3","9","10","40","30","120","72","22","[""Asian""]","No","Male","2008959","null","null","","","","fixation","","","","","","","","","","","","","","","","","","","","","","","","","",""
"","","","","","canvas-keyboard-response","118","200261","0.0-12.0-1.21","2d_cat_multi_stim_exp1","2022-4-29","14:11:22","25","75","3","9","10","40","30","120","72","22","[""Asian""]","No","Male","2008959","null","null","","","","clear_screen","","","","","","","","","","","","","","","","","","","","","","","","","",""
"","","","","","canvas-keyboard-response","119","201174","0.0-12.0-2.21","2d_cat_multi_stim_exp1","2022-4-29","14:11:22","25","75","3","9","10","40","30","120","72","22","[""Asian""]","No","Male","2008959","902","u","learn","","","learn_trial","25","75","in","1","1","","","","","","","","","","","","","","","","","","","","",""
"","","","","","canvas-keyboard-response","120","201685","0.0-12.0-3.21","2d_cat_multi_stim_exp1","2022-4-29","14:11:22","25","75","3","9","10","40","30","120","72","22","[""Asian""]","No","Male","2008959","null","null","learn_feedback","","","learn_feedback","25","75","in","","","","","","","","","","","","","","","","","","","","","","",""
"","","","","","canvas-keyboard-response","121","201745","0.0-12.0-4.21","2d_cat_multi_stim_exp1","2022-4-29","14:11:22","25","75","3","9","10","40","30","120","72","22","[""Asian""]","No","Male","2008959","null","null","","","","clear_screen","","","","","","","","","","","","","","","","","","","","","","","","","",""
"","","","","","canvas-keyboard-response","122","202253","0.0-12.0-0.22","2d_cat_multi_stim_exp1","2022-4-29","14:11:22","25","75","3","9","10","40","30","120","72","22","[""Asian""]","No","Male","2008959","null","null","","","","fixation","","","","","","","","","","","","","","","","","","","","","","","","","",""
"","","","","","canvas-keyboard-response","123","202762","0.0-12.0-1.22","2d_cat_multi_stim_exp1","2022-4-29","14:11:22","25","75","3","9","10","40","30","120","72","22","[""Asian""]","No","Male","2008959","null","null","","","","clear_screen","","","","","","","","","","","","","","","","","","","","","","","","","",""
"","","","","","canvas-keyboard-response","124","203421","0.0-12.0-2.22","2d_cat_multi_stim_exp1","2022-4-29","14:11:22","25","75","3","9","10","40","30","120","72","22","[""Asian""]","No","Male","2008959","647","i","learn","","","learn_trial","10","90","out","0","1","","","","","","","","","","","","","","","","","","","","",""
"","","","","","canvas-keyboard-response","125","203931","0.0-12.0-3.22","2d_cat_multi_stim_exp1","2022-4-29","14:11:22","25","75","3","9","10","40","30","120","72","22","[""Asian""]","No","Male","2008959","null","null","learn_feedback","","","learn_feedback","10","90","out","","","","","","","","","","","","","","","","","","","","","","",""
"","","","","","canvas-keyboard-response","126","203991","0.0-12.0-4.22","2d_cat_multi_stim_exp1","2022-4-29","14:11:22","25","75","3","9","10","40","30","120","72","22","[""Asian""]","No","Male","2008959","null","null","","","","clear_screen","","","","","","","","","","","","","","","","","","","","","","","","","",""
"","","","","","canvas-keyboard-response","127","204500","0.0-12.0-0.23","2d_cat_multi_stim_exp1","2022-4-29","14:11:22","25","75","3","9","10","40","30","120","72","22","[""Asian""]","No","Male","2008959","null","null","","","","fixation","","","","","","","","","","","","","","","","","","","","","","","","","",""
"","","","","","canvas-keyboard-response","128","205010","0.0-12.0-1.23","2d_cat_multi_stim_exp1","2022-4-29","14:11:22","25","75","3","9","10","40","30","120","72","22","[""Asian""]","No","Male","2008959","null","null","","","","clear_screen","","","","","","","","","","","","","","","","","","","","","","","","","",""
"","","","","","canvas-keyboard-response","129","206006","0.0-12.0-2.23","2d_cat_multi_stim_exp1","2022-4-29","14:11:22","25","75","3","9","10","40","30","120","72","22","[""Asian""]","No","Male","2008959","987","i","learn","","","learn_trial","19","75","in","0","0","","","","","","","","","","","","","","","","","","","","",""
"","","","","","canvas-keyboard-response","130","207019","0.0-12.0-3.23","2d_cat_multi_stim_exp1","2022-4-29","14:11:22","25","75","3","9","10","40","30","120","72","22","[""Asian""]","No","Male","2008959","null","null","learn_feedback","","","learn_feedback","19","75","in","","","","","","","","","","","","","","","","","","","","","","",""
"","","","","","canvas-keyboard-response","131","207080","0.0-12.0-4.23","2d_cat_multi_stim_exp1","2022-4-29","14:11:22","25","75","3","9","10","40","30","120","72","22","[""Asian""]","No","Male","2008959","null","null","","","","clear_screen","","","","","","","","","","","","","","","","","","","","","","","","","",""
"","","","","","canvas-keyboard-response","132","207591","0.0-12.0-0.24","2d_cat_multi_stim_exp1","2022-4-29","14:11:22","25","75","3","9","10","40","30","120","72","22","[""Asian""]","No","Male","2008959","null","null","","","","fixation","","","","","","","","","","","","","","","","","","","","","","","","","",""
"","","","","","canvas-keyboard-response","133","208102","0.0-12.0-1.24","2d_cat_multi_stim_exp1","2022-4-29","14:11:22","25","75","3","9","10","40","30","120","72","22","[""Asian""]","No","Male","2008959","null","null","","","","clear_screen","","","","","","","","","","","","","","","","","","","","","","","","","",""
"","","","","","canvas-keyboard-response","134","208693","0.0-12.0-2.24","2d_cat_multi_stim_exp1","2022-4-29","14:11:22","25","75","3","9","10","40","30","120","72","22","[""Asian""]","No","Male","2008959","582","u","learn","","","learn_trial","25","75","in","1","1","","","","","","","","","","","","","","","","","","","","",""
"","","","","","canvas-keyboard-response","135","209205","0.0-12.0-3.24","2d_cat_multi_stim_exp1","2022-4-29","14:11:22","25","75","3","9","10","40","30","120","72","22","[""Asian""]","No","Male","2008959","null","null","learn_feedback","","","learn_feedback","25","75","in","","","","","","","","","","","","","","","","","","","","","","",""
"","","","","","canvas-keyboard-response","136","209264","0.0-12.0-4.24","2d_cat_multi_stim_exp1","2022-4-29","14:11:22","25","75","3","9","10","40","30","120","72","22","[""Asian""]","No","Male","2008959","null","null","","","","clear_screen","","","","","","","","","","","","","","","","","","","","","","","","","",""
"","","","","","canvas-keyboard-response","137","209773","0.0-12.0-0.25","2d_cat_multi_stim_exp1","2022-4-29","14:11:22","25","75","3","9","10","40","30","120","72","22","[""Asian""]","No","Male","2008959","null","null","","","","fixation","","","","","","","","","","","","","","","","","","","","","","","","","",""
"","","","","","canvas-keyboard-response","138","210283","0.0-12.0-1.25","2d_cat_multi_stim_exp1","2022-4-29","14:11:22","25","75","3","9","10","40","30","120","72","22","[""Asian""]","No","Male","2008959","null","null","","","","clear_screen","","","","","","","","","","","","","","","","","","","","","","","","","",""
"","","","","","canvas-keyboard-response","139","210926","0.0-12.0-2.25","2d_cat_multi_stim_exp1","2022-4-29","14:11:22","25","75","3","9","10","40","30","120","72","22","[""Asian""]","No","Male","2008959","633","i","learn","","","learn_trial","40","50","out","0","1","","","","","","","","","","","","","","","","","","","","",""
"","","","","","canvas-keyboard-response","140","211437","0.0-12.0-3.25","2d_cat_multi_stim_exp1","2022-4-29","14:11:22","25","75","3","9","10","40","30","120","72","22","[""Asian""]","No","Male","2008959","null","null","learn_feedback","","","learn_feedback","40","50","out","","","","","","","","","","","","","","","","","","","","","","",""
"","","","","","canvas-keyboard-response","141","211497","0.0-12.0-4.25","2d_cat_multi_stim_exp1","2022-4-29","14:11:22","25","75","3","9","10","40","30","120","72","22","[""Asian""]","No","Male","2008959","null","null","","","","clear_screen","","","","","","","","","","","","","","","","","","","","","","","","","",""
"","","","","","canvas-keyboard-response","142","212007","0.0-12.0-0.26","2d_cat_multi_stim_exp1","2022-4-29","14:11:22","25","75","3","9","10","40","30","120","72","22","[""Asian""]","No","Male","2008959","null","null","","","","fixation","","","","","","","","","","","","","","","","","","","","","","","","","",""
"","","","","","canvas-keyboard-response","143","212516","0.0-12.0-1.26","2d_cat_multi_stim_exp1","2022-4-29","14:11:22","25","75","3","9","10","40","30","120","72","22","[""Asian""]","No","Male","2008959","null","null","","","","clear_screen","","","","","","","","","","","","","","","","","","","","","","","","","",""
"","","","","","canvas-keyboard-response","144","213118","0.0-12.0-2.26","2d_cat_multi_stim_exp1","2022-4-29","14:11:22","25","75","3","9","10","40","30","120","72","22","[""Asian""]","No","Male","2008959","591","u","learn","","","learn_trial","27.2592","69.0786","in","1","1","","","","","","","","","","","","","","","","","","","","",""
"","","","","","canvas-keyboard-response","145","213628","0.0-12.0-3.26","2d_cat_multi_stim_exp1","2022-4-29","14:11:22","25","75","3","9","10","40","30","120","72","22","[""Asian""]","No","Male","2008959","null","null","learn_feedback","","","learn_feedback","27.2592","69.0786","in","","","","","","","","","","","","","","","","","","","","","","",""
"","","","","","canvas-keyboard-response","146","213686","0.0-12.0-4.26","2d_cat_multi_stim_exp1","2022-4-29","14:11:22","25","75","3","9","10","40","30","120","72","22","[""Asian""]","No","Male","2008959","null","null","","","","clear_screen","","","","","","","","","","","","","","","","","","","","","","","","","",""
"","","","","","canvas-keyboard-response","147","214196","0.0-12.0-0.27","2d_cat_multi_stim_exp1","2022-4-29","14:11:22","25","75","3","9","10","40","30","120","72","22","[""Asian""]","No","Male","2008959","null","null","","","","fixation","","","","","","","","","","","","","","","","","","","","","","","","","",""
"","","","","","canvas-keyboard-response","148","214706","0.0-12.0-1.27","2d_cat_multi_stim_exp1","2022-4-29","14:11:22","25","75","3","9","10","40","30","120","72","22","[""Asian""]","No","Male","2008959","null","null","","","","clear_screen","","","","","","","","","","","","","","","","","","","","","","","","","",""
"","","","","","canvas-keyboard-response","149","215502","0.0-12.0-2.27","2d_cat_multi_stim_exp1","2022-4-29","14:11:22","25","75","3","9","10","40","30","120","72","22","[""Asian""]","No","Male","2008959","785","u","learn","","","learn_trial","31","75","in","1","1","","","","","","","","","","","","","","","","","","","","",""
"","","","","","canvas-keyboard-response","150","216011","0.0-12.0-3.27","2d_cat_multi_stim_exp1","2022-4-29","14:11:22","25","75","3","9","10","40","30","120","72","22","[""Asian""]","No","Male","2008959","null","null","learn_feedback","","","learn_feedback","31","75","in","","","","","","","","","","","","","","","","","","","","","","",""
"","","","","","canvas-keyboard-response","151","216070","0.0-12.0-4.27","2d_cat_multi_stim_exp1","2022-4-29","14:11:22","25","75","3","9","10","40","30","120","72","22","[""Asian""]","No","Male","2008959","null","null","","","","clear_screen","","","","","","","","","","","","","","","","","","","","","","","","","",""
"","","","","","canvas-keyboard-response","152","216580","0.0-12.0-0.28","2d_cat_multi_stim_exp1","2022-4-29","14:11:22","25","75","3","9","10","40","30","120","72","22","[""Asian""]","No","Male","2008959","null","null","","","","fixation","","","","","","","","","","","","","","","","","","","","","","","","","",""
"","","","","","canvas-keyboard-response","153","217089","0.0-12.0-1.28","2d_cat_multi_stim_exp1","2022-4-29","14:11:22","25","75","3","9","10","40","30","120","72","22","[""Asian""]","No","Male","2008959","null","null","","","","clear_screen","","","","","","","","","","","","","","","","","","","","","","","","","",""
"","","","","","canvas-keyboard-response","154","217918","0.0-12.0-2.28","2d_cat_multi_stim_exp1","2022-4-29","14:11:22","25","75","3","9","10","40","30","120","72","22","[""Asian""]","No","Male","2008959","819","u","learn","","","learn_trial","25","75","in","1","1","","","","","","","","","","","","","","","","","","","","",""
"","","","","","canvas-keyboard-response","155","218428","0.0-12.0-3.28","2d_cat_multi_stim_exp1","2022-4-29","14:11:22","25","75","3","9","10","40","30","120","72","22","[""Asian""]","No","Male","2008959","null","null","learn_feedback","","","learn_feedback","25","75","in","","","","","","","","","","","","","","","","","","","","","","",""
"","","","","","canvas-keyboard-response","156","218487","0.0-12.0-4.28","2d_cat_multi_stim_exp1","2022-4-29","14:11:22","25","75","3","9","10","40","30","120","72","22","[""Asian""]","No","Male","2008959","null","null","","","","clear_screen","","","","","","","","","","","","","","","","","","","","","","","","","",""
"","","","","","canvas-keyboard-response","157","218996","0.0-12.0-0.29","2d_cat_multi_stim_exp1","2022-4-29","14:11:22","25","75","3","9","10","40","30","120","72","22","[""Asian""]","No","Male","2008959","null","null","","","","fixation","","","","","","","","","","","","","","","","","","","","","","","","","",""
"","","","","","canvas-keyboard-response","158","219505","0.0-12.0-1.29","2d_cat_multi_stim_exp1","2022-4-29","14:11:22","25","75","3","9","10","40","30","120","72","22","[""Asian""]","No","Male","2008959","null","null","","","","clear_screen","","","","","","","","","","","","","","","","","","","","","","","","","",""
"","","","","","canvas-keyboard-response","159","220606","0.0-12.0-2.29","2d_cat_multi_stim_exp1","2022-4-29","14:11:22","25","75","3","9","10","40","30","120","72","22","[""Asian""]","No","Male","2008959","1090","i","learn","","","learn_trial","20","30","out","0","1","","","","","","","","","","","","","","","","","","","","",""
"","","","","","canvas-keyboard-response","160","221115","0.0-12.0-3.29","2d_cat_multi_stim_exp1","2022-4-29","14:11:22","25","75","3","9","10","40","30","120","72","22","[""Asian""]","No","Male","2008959","null","null","learn_feedback","","","learn_feedback","20","30","out","","","","","","","","","","","","","","","","","","","","","","",""
"","","","","","canvas-keyboard-response","161","221175","0.0-12.0-4.29","2d_cat_multi_stim_exp1","2022-4-29","14:11:22","25","75","3","9","10","40","30","120","72","22","[""Asian""]","No","Male","2008959","null","null","","","","clear_screen","","","","","","","","","","","","","","","","","","","","","","","","","",""
"","","","","","canvas-keyboard-response","162","221683","0.0-12.0-0.30","2d_cat_multi_stim_exp1","2022-4-29","14:11:22","25","75","3","9","10","40","30","120","72","22","[""Asian""]","No","Male","2008959","null","null","","","","fixation","","","","","","","","","","","","","","","","","","","","","","","","","",""
"","","","","","canvas-keyboard-response","163","222193","0.0-12.0-1.30","2d_cat_multi_stim_exp1","2022-4-29","14:11:22","25","75","3","9","10","40","30","120","72","22","[""Asian""]","No","Male","2008959","null","null","","","","clear_screen","","","","","","","","","","","","","","","","","","","","","","","","","",""
"","","","","","canvas-keyboard-response","164","222942","0.0-12.0-2.30","2d_cat_multi_stim_exp1","2022-4-29","14:11:22","25","75","3","9","10","40","30","120","72","22","[""Asian""]","No","Male","2008959","738","u","learn","","","learn_trial","25.4027","66.0815","in","1","1","","","","","","","","","","","","","","","","","","","","",""
"","","","","","canvas-keyboard-response","165","223451","0.0-12.0-3.30","2d_cat_multi_stim_exp1","2022-4-29","14:11:22","25","75","3","9","10","40","30","120","72","22","[""Asian""]","No","Male","2008959","null","null","learn_feedback","","","learn_feedback","25.4027","66.0815","in","","","","","","","","","","","","","","","","","","","","","","",""
"","","","","","canvas-keyboard-response","166","223511","0.0-12.0-4.30","2d_cat_multi_stim_exp1","2022-4-29","14:11:22","25","75","3","9","10","40","30","120","72","22","[""Asian""]","No","Male","2008959","null","null","","","","clear_screen","","","","","","","","","","","","","","","","","","","","","","","","","",""
"","","","","","canvas-keyboard-response","167","224020","0.0-12.0-0.31","2d_cat_multi_stim_exp1","2022-4-29","14:11:22","25","75","3","9","10","40","30","120","72","22","[""Asian""]","No","Male","2008959","null","null","","","","fixation","","","","","","","","","","","","","","","","","","","","","","","","","",""
"","","","","","canvas-keyboard-response","168","224533","0.0-12.0-1.31","2d_cat_multi_stim_exp1","2022-4-29","14:11:22","25","75","3","9","10","40","30","120","72","22","[""Asian""]","No","Male","2008959","null","null","","","","clear_screen","","","","","","","","","","","","","","","","","","","","","","","","","",""
"","","","","","canvas-keyboard-response","169","225518","0.0-12.0-2.31","2d_cat_multi_stim_exp1","2022-4-29","14:11:22","25","75","3","9","10","40","30","120","72","22","[""Asian""]","No","Male","2008959","978","u","learn","","","learn_trial","26.8705","67.9635","in","1","1","","","","","","","","","","","","","","","","","","","","",""
"","","","","","canvas-keyboard-response","170","226027","0.0-12.0-3.31","2d_cat_multi_stim_exp1","2022-4-29","14:11:22","25","75","3","9","10","40","30","120","72","22","[""Asian""]","No","Male","2008959","null","null","learn_feedback","","","learn_feedback","26.8705","67.9635","in","","","","","","","","","","","","","","","","","","","","","","",""
"","","","","","canvas-keyboard-response","171","226086","0.0-12.0-4.31","2d_cat_multi_stim_exp1","2022-4-29","14:11:22","25","75","3","9","10","40","30","120","72","22","[""Asian""]","No","Male","2008959","null","null","","","","clear_screen","","","","","","","","","","","","","","","","","","","","","","","","","",""
"","","","","","canvas-keyboard-response","172","226596","0.0-12.0-0.32","2d_cat_multi_stim_exp1","2022-4-29","14:11:22","25","75","3","9","10","40","30","120","72","22","[""Asian""]","No","Male","2008959","null","null","","","","fixation","","","","","","","","","","","","","","","","","","","","","","","","","",""
"","","","","","canvas-keyboard-response","173","227105","0.0-12.0-1.32","2d_cat_multi_stim_exp1","2022-4-29","14:11:22","25","75","3","9","10","40","30","120","72","22","[""Asian""]","No","Male","2008959","null","null","","","","clear_screen","","","","","","","","","","","","","","","","","","","","","","","","","",""
"","","","","","canvas-keyboard-response","174","227878","0.0-12.0-2.32","2d_cat_multi_stim_exp1","2022-4-29","14:11:22","25","75","3","9","10","40","30","120","72","22","[""Asian""]","No","Male","2008959","762","u","learn","","","learn_trial","22.2971","71.095","in","1","1","","","","","","","","","","","","","","","","","","","","",""
"","","","","","canvas-keyboard-response","175","228388","0.0-12.0-3.32","2d_cat_multi_stim_exp1","2022-4-29","14:11:22","25","75","3","9","10","40","30","120","72","22","[""Asian""]","No","Male","2008959","null","null","learn_feedback","","","learn_feedback","22.2971","71.095","in","","","","","","","","","","","","","","","","","","","","","","",""
"","","","","","canvas-keyboard-response","176","228448","0.0-12.0-4.32","2d_cat_multi_stim_exp1","2022-4-29","14:11:22","25","75","3","9","10","40","30","120","72","22","[""Asian""]","No","Male","2008959","null","null","","","","clear_screen","","","","","","","","","","","","","","","","","","","","","","","","","",""
"","","","","","canvas-keyboard-response","177","228956","0.0-12.0-0.33","2d_cat_multi_stim_exp1","2022-4-29","14:11:22","25","75","3","9","10","40","30","120","72","22","[""Asian""]","No","Male","2008959","null","null","","","","fixation","","","","","","","","","","","","","","","","","","","","","","","","","",""
"","","","","","canvas-keyboard-response","178","229466","0.0-12.0-1.33","2d_cat_multi_stim_exp1","2022-4-29","14:11:22","25","75","3","9","10","40","30","120","72","22","[""Asian""]","No","Male","2008959","null","null","","","","clear_screen","","","","","","","","","","","","","","","","","","","","","","","","","",""
"","","","","","canvas-keyboard-response","179","230390","0.0-12.0-2.33","2d_cat_multi_stim_exp1","2022-4-29","14:11:22","25","75","3","9","10","40","30","120","72","22","[""Asian""]","No","Male","2008959","915","u","learn","","","learn_trial","30","60","out","1","0","","","","","","","","","","","","","","","","","","","","",""
"","","","","","canvas-keyboard-response","180","231400","0.0-12.0-3.33","2d_cat_multi_stim_exp1","2022-4-29","14:11:22","25","75","3","9","10","40","30","120","72","22","[""Asian""]","No","Male","2008959","null","null","learn_feedback","","","learn_feedback","30","60","out","","","","","","","","","","","","","","","","","","","","","","",""
"","","","","","canvas-keyboard-response","181","231459","0.0-12.0-4.33","2d_cat_multi_stim_exp1","2022-4-29","14:11:22","25","75","3","9","10","40","30","120","72","22","[""Asian""]","No","Male","2008959","null","null","","","","clear_screen","","","","","","","","","","","","","","","","","","","","","","","","","",""
"","","","","","canvas-keyboard-response","182","231968","0.0-12.0-0.34","2d_cat_multi_stim_exp1","2022-4-29","14:11:22","25","75","3","9","10","40","30","120","72","22","[""Asian""]","No","Male","2008959","null","null","","","","fixation","","","","","","","","","","","","","","","","","","","","","","","","","",""
"","","","","","canvas-keyboard-response","183","232477","0.0-12.0-1.34","2d_cat_multi_stim_exp1","2022-4-29","14:11:22","25","75","3","9","10","40","30","120","72","22","[""Asian""]","No","Male","2008959","null","null","","","","clear_screen","","","","","","","","","","","","","","","","","","","","","","","","","",""
"","","","","","canvas-keyboard-response","184","233229","0.0-12.0-2.34","2d_cat_multi_stim_exp1","2022-4-29","14:11:22","25","75","3","9","10","40","30","120","72","22","[""Asian""]","No","Male","2008959","741","u","learn","","","learn_trial","25","75","in","1","1","","","","","","","","","","","","","","","","","","","","",""
"","","","","","canvas-keyboard-response","185","233738","0.0-12.0-3.34","2d_cat_multi_stim_exp1","2022-4-29","14:11:22","25","75","3","9","10","40","30","120","72","22","[""Asian""]","No","Male","2008959","null","null","learn_feedback","","","learn_feedback","25","75","in","","","","","","","","","","","","","","","","","","","","","","",""
"","","","","","canvas-keyboard-response","186","233797","0.0-12.0-4.34","2d_cat_multi_stim_exp1","2022-4-29","14:11:22","25","75","3","9","10","40","30","120","72","22","[""Asian""]","No","Male","2008959","null","null","","","","clear_screen","","","","","","","","","","","","","","","","","","","","","","","","","",""
"","","","","","canvas-keyboard-response","187","234306","0.0-12.0-0.35","2d_cat_multi_stim_exp1","2022-4-29","14:11:22","25","75","3","9","10","40","30","120","72","22","[""Asian""]","No","Male","2008959","null","null","","","","fixation","","","","","","","","","","","","","","","","","","","","","","","","","",""
"","","","","","canvas-keyboard-response","188","234815","0.0-12.0-1.35","2d_cat_multi_stim_exp1","2022-4-29","14:11:22","25","75","3","9","10","40","30","120","72","22","[""Asian""]","No","Male","2008959","null","null","","","","clear_screen","","","","","","","","","","","","","","","","","","","","","","","","","",""
"","","","","","canvas-keyboard-response","189","235453","0.0-12.0-2.35","2d_cat_multi_stim_exp1","2022-4-29","14:11:22","25","75","3","9","10","40","30","120","72","22","[""Asian""]","No","Male","2008959","628","u","learn","","","learn_trial","25","75","in","1","1","","","","","","","","","","","","","","","","","","","","",""
"","","","","","canvas-keyboard-response","190","235963","0.0-12.0-3.35","2d_cat_multi_stim_exp1","2022-4-29","14:11:22","25","75","3","9","10","40","30","120","72","22","[""Asian""]","No","Male","2008959","null","null","learn_feedback","","","learn_feedback","25","75","in","","","","","","","","","","","","","","","","","","","","","","",""
"","","","","","canvas-keyboard-response","191","236022","0.0-12.0-4.35","2d_cat_multi_stim_exp1","2022-4-29","14:11:22","25","75","3","9","10","40","30","120","72","22","[""Asian""]","No","Male","2008959","null","null","","","","clear_screen","","","","","","","","","","","","","","","","","","","","","","","","","",""
"","","","","","canvas-keyboard-response","192","236531","0.0-12.0-0.36","2d_cat_multi_stim_exp1","2022-4-29","14:11:22","25","75","3","9","10","40","30","120","72","22","[""Asian""]","No","Male","2008959","null","null","","","","fixation","","","","","","","","","","","","","","","","","","","","","","","","","",""
"","","","","","canvas-keyboard-response","193","237041","0.0-12.0-1.36","2d_cat_multi_stim_exp1","2022-4-29","14:11:22","25","75","3","9","10","40","30","120","72","22","[""Asian""]","No","Male","2008959","null","null","","","","clear_screen","","","","","","","","","","","","","","","","","","","","","","","","","",""
"","","","","","canvas-keyboard-response","194","237573","0.0-12.0-2.36","2d_cat_multi_stim_exp1","2022-4-29","14:11:22","25","75","3","9","10","40","30","120","72","22","[""Asian""]","No","Male","2008959","522","u","learn","","","learn_trial","30","70","out","1","0","","","","","","","","","","","","","","","","","","","","",""
"","","","","","canvas-keyboard-response","195","238583","0.0-12.0-3.36","2d_cat_multi_stim_exp1","2022-4-29","14:11:22","25","75","3","9","10","40","30","120","72","22","[""Asian""]","No","Male","2008959","null","null","learn_feedback","","","learn_feedback","30","70","out","","","","","","","","","","","","","","","","","","","","","","",""
"","","","","","canvas-keyboard-response","196","238642","0.0-12.0-4.36","2d_cat_multi_stim_exp1","2022-4-29","14:11:22","25","75","3","9","10","40","30","120","72","22","[""Asian""]","No","Male","2008959","null","null","","","","clear_screen","","","","","","","","","","","","","","","","","","","","","","","","","",""
"","","","","","canvas-keyboard-response","197","239151","0.0-12.0-0.37","2d_cat_multi_stim_exp1","2022-4-29","14:11:22","25","75","3","9","10","40","30","120","72","22","[""Asian""]","No","Male","2008959","null","null","","","","fixation","","","","","","","","","","","","","","","","","","","","","","","","","",""
"","","","","","canvas-keyboard-response","198","239660","0.0-12.0-1.37","2d_cat_multi_stim_exp1","2022-4-29","14:11:22","25","75","3","9","10","40","30","120","72","22","[""Asian""]","No","Male","2008959","null","null","","","","clear_screen","","","","","","","","","","","","","","","","","","","","","","","","","",""
"","","","","","canvas-keyboard-response","199","240277","0.0-12.0-2.37","2d_cat_multi_stim_exp1","2022-4-29","14:11:22","25","75","3","9","10","40","30","120","72","22","[""Asian""]","No","Male","2008959","608","i","learn","","","learn_trial","40","80","out","0","1","","","","","","","","","","","","","","","","","","","","",""
"","","","","","canvas-keyboard-response","200","240790","0.0-12.0-3.37","2d_cat_multi_stim_exp1","2022-4-29","14:11:22","25","75","3","9","10","40","30","120","72","22","[""Asian""]","No","Male","2008959","null","null","learn_feedback","","","learn_feedback","40","80","out","","","","","","","","","","","","","","","","","","","","","","",""
"","","","","","canvas-keyboard-response","201","240849","0.0-12.0-4.37","2d_cat_multi_stim_exp1","2022-4-29","14:11:22","25","75","3","9","10","40","30","120","72","22","[""Asian""]","No","Male","2008959","null","null","","","","clear_screen","","","","","","","","","","","","","","","","","","","","","","","","","",""
"","","","","","canvas-keyboard-response","202","241359","0.0-12.0-0.38","2d_cat_multi_stim_exp1","2022-4-29","14:11:22","25","75","3","9","10","40","30","120","72","22","[""Asian""]","No","Male","2008959","null","null","","","","fixation","","","","","","","","","","","","","","","","","","","","","","","","","",""
"","","","","","canvas-keyboard-response","203","241869","0.0-12.0-1.38","2d_cat_multi_stim_exp1","2022-4-29","14:11:22","25","75","3","9","10","40","30","120","72","22","[""Asian""]","No","Male","2008959","null","null","","","","clear_screen","","","","","","","","","","","","","","","","","","","","","","","","","",""
"","","","","","canvas-keyboard-response","204","242797","0.0-12.0-2.38","2d_cat_multi_stim_exp1","2022-4-29","14:11:22","25","75","3","9","10","40","30","120","72","22","[""Asian""]","No","Male","2008959","919","i","learn","","","learn_trial","36.6667","120","out","0","1","","","","","","","","","","","","","","","","","","","","",""
"","","","","","canvas-keyboard-response","205","243307","0.0-12.0-3.38","2d_cat_multi_stim_exp1","2022-4-29","14:11:22","25","75","3","9","10","40","30","120","72","22","[""Asian""]","No","Male","2008959","null","null","learn_feedback","","","learn_feedback","36.6667","120","out","","","","","","","","","","","","","","","","","","","","","","",""
"","","","","","canvas-keyboard-response","206","243366","0.0-12.0-4.38","2d_cat_multi_stim_exp1","2022-4-29","14:11:22","25","75","3","9","10","40","30","120","72","22","[""Asian""]","No","Male","2008959","null","null","","","","clear_screen","","","","","","","","","","","","","","","","","","","","","","","","","",""
"","","","","","canvas-keyboard-response","207","243874","0.0-12.0-0.39","2d_cat_multi_stim_exp1","2022-4-29","14:11:22","25","75","3","9","10","40","30","120","72","22","[""Asian""]","No","Male","2008959","null","null","","","","fixation","","","","","","","","","","","","","","","","","","","","","","","","","",""
"","","","","","canvas-keyboard-response","208","244384","0.0-12.0-1.39","2d_cat_multi_stim_exp1","2022-4-29","14:11:22","25","75","3","9","10","40","30","120","72","22","[""Asian""]","No","Male","2008959","null","null","","","","clear_screen","","","","","","","","","","","","","","","","","","","","","","","","","",""
"","","","","","canvas-keyboard-response","209","246245","0.0-12.0-2.39","2d_cat_multi_stim_exp1","2022-4-29","14:11:22","25","75","3","9","10","40","30","120","72","22","[""Asian""]","No","Male","2008959","1851","u","learn","","","learn_trial","26.6667","110","out","1","0","","","","","","","","","","","","","","","","","","","","",""
"","","","","","canvas-keyboard-response","210","247255","0.0-12.0-3.39","2d_cat_multi_stim_exp1","2022-4-29","14:11:22","25","75","3","9","10","40","30","120","72","22","[""Asian""]","No","Male","2008959","null","null","learn_feedback","","","learn_feedback","26.6667","110","out","","","","","","","","","","","","","","","","","","","","","","",""
"","","","","","canvas-keyboard-response","211","247313","0.0-12.0-4.39","2d_cat_multi_stim_exp1","2022-4-29","14:11:22","25","75","3","9","10","40","30","120","72","22","[""Asian""]","No","Male","2008959","null","null","","","","clear_screen","","","","","","","","","","","","","","","","","","","","","","","","","",""
"","","","","","canvas-keyboard-response","212","247823","0.0-12.0-0.40","2d_cat_multi_stim_exp1","2022-4-29","14:11:22","25","75","3","9","10","40","30","120","72","22","[""Asian""]","No","Male","2008959","null","null","","","","fixation","","","","","","","","","","","","","","","","","","","","","","","","","",""
"","","","","","canvas-keyboard-response","213","248333","0.0-12.0-1.40","2d_cat_multi_stim_exp1","2022-4-29","14:11:22","25","75","3","9","10","40","30","120","72","22","[""Asian""]","No","Male","2008959","null","null","","","","clear_screen","","","","","","","","","","","","","","","","","","","","","","","","","",""
"","","","","","canvas-keyboard-response","214","248981","0.0-12.0-2.40","2d_cat_multi_stim_exp1","2022-4-29","14:11:22","25","75","3","9","10","40","30","120","72","22","[""Asian""]","No","Male","2008959","639","u","learn","","","learn_trial","25","93","in","1","1","","","","","","","","","","","","","","","","","","","","",""
"","","","","","canvas-keyboard-response","215","249492","0.0-12.0-3.40","2d_cat_multi_stim_exp1","2022-4-29","14:11:22","25","75","3","9","10","40","30","120","72","22","[""Asian""]","No","Male","2008959","null","null","learn_feedback","","","learn_feedback","25","93","in","","","","","","","","","","","","","","","","","","","","","","",""
"","","","","","canvas-keyboard-response","216","249551","0.0-12.0-4.40","2d_cat_multi_stim_exp1","2022-4-29","14:11:22","25","75","3","9","10","40","30","120","72","22","[""Asian""]","No","Male","2008959","null","null","","","","clear_screen","","","","","","","","","","","","","","","","","","","","","","","","","",""
"","","","","","canvas-keyboard-response","217","250061","0.0-12.0-0.41","2d_cat_multi_stim_exp1","2022-4-29","14:11:22","25","75","3","9","10","40","30","120","72","22","[""Asian""]","No","Male","2008959","null","null","","","","fixation","","","","","","","","","","","","","","","","","","","","","","","","","",""
"","","","","","canvas-keyboard-response","218","250571","0.0-12.0-1.41","2d_cat_multi_stim_exp1","2022-4-29","14:11:22","25","75","3","9","10","40","30","120","72","22","[""Asian""]","No","Male","2008959","null","null","","","","clear_screen","","","","","","","","","","","","","","","","","","","","","","","","","",""
"","","","","","canvas-keyboard-response","219","251221","0.0-12.0-2.41","2d_cat_multi_stim_exp1","2022-4-29","14:11:22","25","75","3","9","10","40","30","120","72","22","[""Asian""]","No","Male","2008959","640","i","learn","","","learn_trial","36.6667","60","out","0","1","","","","","","","","","","","","","","","","","","","","",""
"","","","","","canvas-keyboard-response","220","251732","0.0-12.0-3.41","2d_cat_multi_stim_exp1","2022-4-29","14:11:22","25","75","3","9","10","40","30","120","72","22","[""Asian""]","No","Male","2008959","null","null","learn_feedback","","","learn_feedback","36.6667","60","out","","","","","","","","","","","","","","","","","","","","","","",""
"","","","","","canvas-keyboard-response","221","251790","0.0-12.0-4.41","2d_cat_multi_stim_exp1","2022-4-29","14:11:22","25","75","3","9","10","40","30","120","72","22","[""Asian""]","No","Male","2008959","null","null","","","","clear_screen","","","","","","","","","","","","","","","","","","","","","","","","","",""
"","","","","","canvas-keyboard-response","222","252300","0.0-12.0-0.42","2d_cat_multi_stim_exp1","2022-4-29","14:11:22","25","75","3","9","10","40","30","120","72","22","[""Asian""]","No","Male","2008959","null","null","","","","fixation","","","","","","","","","","","","","","","","","","","","","","","","","",""
"","","","","","canvas-keyboard-response","223","252809","0.0-12.0-1.42","2d_cat_multi_stim_exp1","2022-4-29","14:11:22","25","75","3","9","10","40","30","120","72","22","[""Asian""]","No","Male","2008959","null","null","","","","clear_screen","","","","","","","","","","","","","","","","","","","","","","","","","",""
"","","","","","canvas-keyboard-response","224","253349","0.0-12.0-2.42","2d_cat_multi_stim_exp1","2022-4-29","14:11:22","25","75","3","9","10","40","30","120","72","22","[""Asian""]","No","Male","2008959","532","u","learn","","","learn_trial","25","75","in","1","1","","","","","","","","","","","","","","","","","","","","",""
"","","","","","canvas-keyboard-response","225","253859","0.0-12.0-3.42","2d_cat_multi_stim_exp1","2022-4-29","14:11:22","25","75","3","9","10","40","30","120","72","22","[""Asian""]","No","Male","2008959","null","null","learn_feedback","","","learn_feedback","25","75","in","","","","","","","","","","","","","","","","","","","","","","",""
"","","","","","canvas-keyboard-response","226","253918","0.0-12.0-4.42","2d_cat_multi_stim_exp1","2022-4-29","14:11:22","25","75","3","9","10","40","30","120","72","22","[""Asian""]","No","Male","2008959","null","null","","","","clear_screen","","","","","","","","","","","","","","","","","","","","","","","","","",""
"","","","","","canvas-keyboard-response","227","254427","0.0-12.0-0.43","2d_cat_multi_stim_exp1","2022-4-29","14:11:22","25","75","3","9","10","40","30","120","72","22","[""Asian""]","No","Male","2008959","null","null","","","","fixation","","","","","","","","","","","","","","","","","","","","","","","","","",""
"","","","","","canvas-keyboard-response","228","254937","0.0-12.0-1.43","2d_cat_multi_stim_exp1","2022-4-29","14:11:22","25","75","3","9","10","40","30","120","72","22","[""Asian""]","No","Male","2008959","null","null","","","","clear_screen","","","","","","","","","","","","","","","","","","","","","","","","","",""
"","","","","","canvas-keyboard-response","229","255797","0.0-12.0-2.43","2d_cat_multi_stim_exp1","2022-4-29","14:11:22","25","75","3","9","10","40","30","120","72","22","[""Asian""]","No","Male","2008959","850","i","learn","","","learn_trial","36.6667","50","out","0","1","","","","","","","","","","","","","","","","","","","","",""
"","","","","","canvas-keyboard-response","230","256308","0.0-12.0-3.43","2d_cat_multi_stim_exp1","2022-4-29","14:11:22","25","75","3","9","10","40","30","120","72","22","[""Asian""]","No","Male","2008959","null","null","learn_feedback","","","learn_feedback","36.6667","50","out","","","","","","","","","","","","","","","","","","","","","","",""
"","","","","","canvas-keyboard-response","231","256371","0.0-12.0-4.43","2d_cat_multi_stim_exp1","2022-4-29","14:11:22","25","75","3","9","10","40","30","120","72","22","[""Asian""]","No","Male","2008959","null","null","","","","clear_screen","","","","","","","","","","","","","","","","","","","","","","","","","",""
"","","","","","canvas-keyboard-response","232","256882","0.0-12.0-0.44","2d_cat_multi_stim_exp1","2022-4-29","14:11:22","25","75","3","9","10","40","30","120","72","22","[""Asian""]","No","Male","2008959","null","null","","","","fixation","","","","","","","","","","","","","","","","","","","","","","","","","",""
"","","","","","canvas-keyboard-response","233","257392","0.0-12.0-1.44","2d_cat_multi_stim_exp1","2022-4-29","14:11:22","25","75","3","9","10","40","30","120","72","22","[""Asian""]","No","Male","2008959","null","null","","","","clear_screen","","","","","","","","","","","","","","","","","","","","","","","","","",""
"","","","","","canvas-keyboard-response","234","258957","0.0-12.0-2.44","2d_cat_multi_stim_exp1","2022-4-29","14:11:22","25","75","3","9","10","40","30","120","72","22","[""Asian""]","No","Male","2008959","1554","i","learn","","","learn_trial","24.8654","66.0091","in","0","0","","","","","","","","","","","","","","","","","","","","",""
"","","","","","canvas-keyboard-response","235","259966","0.0-12.0-3.44","2d_cat_multi_stim_exp1","2022-4-29","14:11:22","25","75","3","9","10","40","30","120","72","22","[""Asian""]","No","Male","2008959","null","null","learn_feedback","","","learn_feedback","24.8654","66.0091","in","","","","","","","","","","","","","","","","","","","","","","",""
"","","","","","canvas-keyboard-response","236","260025","0.0-12.0-4.44","2d_cat_multi_stim_exp1","2022-4-29","14:11:22","25","75","3","9","10","40","30","120","72","22","[""Asian""]","No","Male","2008959","null","null","","","","clear_screen","","","","","","","","","","","","","","","","","","","","","","","","","",""
"","","","","","canvas-keyboard-response","237","260535","0.0-12.0-0.45","2d_cat_multi_stim_exp1","2022-4-29","14:11:22","25","75","3","9","10","40","30","120","72","22","[""Asian""]","No","Male","2008959","null","null","","","","fixation","","","","","","","","","","","","","","","","","","","","","","","","","",""
"","","","","","canvas-keyboard-response","238","261044","0.0-12.0-1.45","2d_cat_multi_stim_exp1","2022-4-29","14:11:22","25","75","3","9","10","40","30","120","72","22","[""Asian""]","No","Male","2008959","null","null","","","","clear_screen","","","","","","","","","","","","","","","","","","","","","","","","","",""
"","","","","","canvas-keyboard-response","239","261629","0.0-12.0-2.45","2d_cat_multi_stim_exp1","2022-4-29","14:11:22","25","75","3","9","10","40","30","120","72","22","[""Asian""]","No","Male","2008959","575","u","learn","","","learn_trial","25","75","in","1","1","","","","","","","","","","","","","","","","","","","","",""
"","","","","","canvas-keyboard-response","240","262140","0.0-12.0-3.45","2d_cat_multi_stim_exp1","2022-4-29","14:11:22","25","75","3","9","10","40","30","120","72","22","[""Asian""]","No","Male","2008959","null","null","learn_feedback","","","learn_feedback","25","75","in","","","","","","","","","","","","","","","","","","","","","","",""
"","","","","","canvas-keyboard-response","241","262200","0.0-12.0-4.45","2d_cat_multi_stim_exp1","2022-4-29","14:11:22","25","75","3","9","10","40","30","120","72","22","[""Asian""]","No","Male","2008959","null","null","","","","clear_screen","","","","","","","","","","","","","","","","","","","","","","","","","",""
"","","","","","canvas-keyboard-response","242","262710","0.0-12.0-0.46","2d_cat_multi_stim_exp1","2022-4-29","14:11:22","25","75","3","9","10","40","30","120","72","22","[""Asian""]","No","Male","2008959","null","null","","","","fixation","","","","","","","","","","","","","","","","","","","","","","","","","",""
"","","","","","canvas-keyboard-response","243","263220","0.0-12.0-1.46","2d_cat_multi_stim_exp1","2022-4-29","14:11:22","25","75","3","9","10","40","30","120","72","22","[""Asian""]","No","Male","2008959","null","null","","","","clear_screen","","","","","","","","","","","","","","","","","","","","","","","","","",""
"","","","","","canvas-keyboard-response","244","263718","0.0-12.0-2.46","2d_cat_multi_stim_exp1","2022-4-29","14:11:22","25","75","3","9","10","40","30","120","72","22","[""Asian""]","No","Male","2008959","488","u","learn","","","learn_trial","25","75","in","1","1","","","","","","","","","","","","","","","","","","","","",""
"","","","","","canvas-keyboard-response","245","264227","0.0-12.0-3.46","2d_cat_multi_stim_exp1","2022-4-29","14:11:22","25","75","3","9","10","40","30","120","72","22","[""Asian""]","No","Male","2008959","null","null","learn_feedback","","","learn_feedback","25","75","in","","","","","","","","","","","","","","","","","","","","","","",""
"","","","","","canvas-keyboard-response","246","264287","0.0-12.0-4.46","2d_cat_multi_stim_exp1","2022-4-29","14:11:22","25","75","3","9","10","40","30","120","72","22","[""Asian""]","No","Male","2008959","null","null","","","","clear_screen","","","","","","","","","","","","","","","","","","","","","","","","","",""
"","","","","","canvas-keyboard-response","247","264799","0.0-12.0-0.47","2d_cat_multi_stim_exp1","2022-4-29","14:11:22","25","75","3","9","10","40","30","120","72","22","[""Asian""]","No","Male","2008959","null","null","","","","fixation","","","","","","","","","","","","","","","","","","","","","","","","","",""
"","","","","","canvas-keyboard-response","248","265309","0.0-12.0-1.47","2d_cat_multi_stim_exp1","2022-4-29","14:11:22","25","75","3","9","10","40","30","120","72","22","[""Asian""]","No","Male","2008959","null","null","","","","clear_screen","","","","","","","","","","","","","","","","","","","","","","","","","",""
"","","","","","canvas-keyboard-response","249","266142","0.0-12.0-2.47","2d_cat_multi_stim_exp1","2022-4-29","14:11:22","25","75","3","9","10","40","30","120","72","22","[""Asian""]","No","Male","2008959","823","i","learn","","","learn_trial","30","110","out","0","1","","","","","","","","","","","","","","","","","","","","",""
"","","","","","canvas-keyboard-response","250","266652","0.0-12.0-3.47","2d_cat_multi_stim_exp1","2022-4-29","14:11:22","25","75","3","9","10","40","30","120","72","22","[""Asian""]","No","Male","2008959","null","null","learn_feedback","","","learn_feedback","30","110","out","","","","","","","","","","","","","","","","","","","","","","",""
"","","","","","canvas-keyboard-response","251","266711","0.0-12.0-4.47","2d_cat_multi_stim_exp1","2022-4-29","14:11:22","25","75","3","9","10","40","30","120","72","22","[""Asian""]","No","Male","2008959","null","null","","","","clear_screen","","","","","","","","","","","","","","","","","","","","","","","","","",""
"","","","","","canvas-keyboard-response","252","267220","0.0-12.0-0.48","2d_cat_multi_stim_exp1","2022-4-29","14:11:22","25","75","3","9","10","40","30","120","72","22","[""Asian""]","No","Male","2008959","null","null","","","","fixation","","","","","","","","","","","","","","","","","","","","","","","","","",""
"","","","","","canvas-keyboard-response","253","267729","0.0-12.0-1.48","2d_cat_multi_stim_exp1","2022-4-29","14:11:22","25","75","3","9","10","40","30","120","72","22","[""Asian""]","No","Male","2008959","null","null","","","","clear_screen","","","","","","","","","","","","","","","","","","","","","","","","","",""
"","","","","","canvas-keyboard-response","254","268381","0.0-12.0-2.48","2d_cat_multi_stim_exp1","2022-4-29","14:11:22","25","75","3","9","10","40","30","120","72","22","[""Asian""]","No","Male","2008959","642","u","learn","","","learn_trial","25","75","in","1","1","","","","","","","","","","","","","","","","","","","","",""
"","","","","","canvas-keyboard-response","255","268891","0.0-12.0-3.48","2d_cat_multi_stim_exp1","2022-4-29","14:11:22","25","75","3","9","10","40","30","120","72","22","[""Asian""]","No","Male","2008959","null","null","learn_feedback","","","learn_feedback","25","75","in","","","","","","","","","","","","","","","","","","","","","","",""
"","","","","","canvas-keyboard-response","256","268950","0.0-12.0-4.48","2d_cat_multi_stim_exp1","2022-4-29","14:11:22","25","75","3","9","10","40","30","120","72","22","[""Asian""]","No","Male","2008959","null","null","","","","clear_screen","","","","","","","","","","","","","","","","","","","","","","","","","",""
"","","","","","canvas-keyboard-response","257","269458","0.0-12.0-0.49","2d_cat_multi_stim_exp1","2022-4-29","14:11:22","25","75","3","9","10","40","30","120","72","22","[""Asian""]","No","Male","2008959","null","null","","","","fixation","","","","","","","","","","","","","","","","","","","","","","","","","",""
"","","","","","canvas-keyboard-response","258","269968","0.0-12.0-1.49","2d_cat_multi_stim_exp1","2022-4-29","14:11:22","25","75","3","9","10","40","30","120","72","22","[""Asian""]","No","Male","2008959","null","null","","","","clear_screen","","","","","","","","","","","","","","","","","","","","","","","","","",""
"","","","","","canvas-keyboard-response","259","270790","0.0-12.0-2.49","2d_cat_multi_stim_exp1","2022-4-29","14:11:22","25","75","3","9","10","40","30","120","72","22","[""Asian""]","No","Male","2008959","811","u","learn","","","learn_trial","25","75","in","1","1","","","","","","","","","","","","","","","","","","","","",""
"","","","","","canvas-keyboard-response","260","271300","0.0-12.0-3.49","2d_cat_multi_stim_exp1","2022-4-29","14:11:22","25","75","3","9","10","40","30","120","72","22","[""Asian""]","No","Male","2008959","null","null","learn_feedback","","","learn_feedback","25","75","in","","","","","","","","","","","","","","","","","","","","","","",""
"","","","","","canvas-keyboard-response","261","271358","0.0-12.0-4.49","2d_cat_multi_stim_exp1","2022-4-29","14:11:22","25","75","3","9","10","40","30","120","72","22","[""Asian""]","No","Male","2008959","null","null","","","","clear_screen","","","","","","","","","","","","","","","","","","","","","","","","","",""
"","","","","","canvas-keyboard-response","262","271868","0.0-12.0-0.50","2d_cat_multi_stim_exp1","2022-4-29","14:11:22","25","75","3","9","10","40","30","120","72","22","[""Asian""]","No","Male","2008959","null","null","","","","fixation","","","","","","","","","","","","","","","","","","","","","","","","","",""
"","","","","","canvas-keyboard-response","263","272376","0.0-12.0-1.50","2d_cat_multi_stim_exp1","2022-4-29","14:11:22","25","75","3","9","10","40","30","120","72","22","[""Asian""]","No","Male","2008959","null","null","","","","clear_screen","","","","","","","","","","","","","","","","","","","","","","","","","",""
"","","","","","canvas-keyboard-response","264","273093","0.0-12.0-2.50","2d_cat_multi_stim_exp1","2022-4-29","14:11:22","25","75","3","9","10","40","30","120","72","22","[""Asian""]","No","Male","2008959","706","i","learn","","","learn_trial","10","30","out","0","1","","","","","","","","","","","","","","","","","","","","",""
"","","","","","canvas-keyboard-response","265","273607","0.0-12.0-3.50","2d_cat_multi_stim_exp1","2022-4-29","14:11:22","25","75","3","9","10","40","30","120","72","22","[""Asian""]","No","Male","2008959","null","null","learn_feedback","","","learn_feedback","10","30","out","","","","","","","","","","","","","","","","","","","","","","",""
"","","","","","canvas-keyboard-response","266","273666","0.0-12.0-4.50","2d_cat_multi_stim_exp1","2022-4-29","14:11:22","25","75","3","9","10","40","30","120","72","22","[""Asian""]","No","Male","2008959","null","null","","","","clear_screen","","","","","","","","","","","","","","","","","","","","","","","","","",""
"","","","","","canvas-keyboard-response","267","274175","0.0-12.0-0.51","2d_cat_multi_stim_exp1","2022-4-29","14:11:22","25","75","3","9","10","40","30","120","72","22","[""Asian""]","No","Male","2008959","null","null","","","","fixation","","","","","","","","","","","","","","","","","","","","","","","","","",""
"","","","","","canvas-keyboard-response","268","274685","0.0-12.0-1.51","2d_cat_multi_stim_exp1","2022-4-29","14:11:22","25","75","3","9","10","40","30","120","72","22","[""Asian""]","No","Male","2008959","null","null","","","","clear_screen","","","","","","","","","","","","","","","","","","","","","","","","","",""
"","","","","","canvas-keyboard-response","269","275397","0.0-12.0-2.51","2d_cat_multi_stim_exp1","2022-4-29","14:11:22","25","75","3","9","10","40","30","120","72","22","[""Asian""]","No","Male","2008959","702","i","learn","","","learn_trial","40","40","out","0","1","","","","","","","","","","","","","","","","","","","","",""
"","","","","","canvas-keyboard-response","270","275908","0.0-12.0-3.51","2d_cat_multi_stim_exp1","2022-4-29","14:11:22","25","75","3","9","10","40","30","120","72","22","[""Asian""]","No","Male","2008959","null","null","learn_feedback","","","learn_feedback","40","40","out","","","","","","","","","","","","","","","","","","","","","","",""
"","","","","","canvas-keyboard-response","271","275967","0.0-12.0-4.51","2d_cat_multi_stim_exp1","2022-4-29","14:11:22","25","75","3","9","10","40","30","120","72","22","[""Asian""]","No","Male","2008959","null","null","","","","clear_screen","","","","","","","","","","","","","","","","","","","","","","","","","",""
"","","","","","canvas-keyboard-response","272","276476","0.0-12.0-0.52","2d_cat_multi_stim_exp1","2022-4-29","14:11:22","25","75","3","9","10","40","30","120","72","22","[""Asian""]","No","Male","2008959","null","null","","","","fixation","","","","","","","","","","","","","","","","","","","","","","","","","",""
"","","","","","canvas-keyboard-response","273","276985","0.0-12.0-1.52","2d_cat_multi_stim_exp1","2022-4-29","14:11:22","25","75","3","9","10","40","30","120","72","22","[""Asian""]","No","Male","2008959","null","null","","","","clear_screen","","","","","","","","","","","","","","","","","","","","","","","","","",""
"","","","","","canvas-keyboard-response","274","277597","0.0-12.0-2.52","2d_cat_multi_stim_exp1","2022-4-29","14:11:22","25","75","3","9","10","40","30","120","72","22","[""Asian""]","No","Male","2008959","602","i","learn","","","learn_trial","10","40","out","0","1","","","","","","","","","","","","","","","","","","","","",""
"","","","","","canvas-keyboard-response","275","278106","0.0-12.0-3.52","2d_cat_multi_stim_exp1","2022-4-29","14:11:22","25","75","3","9","10","40","30","120","72","22","[""Asian""]","No","Male","2008959","null","null","learn_feedback","","","learn_feedback","10","40","out","","","","","","","","","","","","","","","","","","","","","","",""
"","","","","","canvas-keyboard-response","276","278164","0.0-12.0-4.52","2d_cat_multi_stim_exp1","2022-4-29","14:11:22","25","75","3","9","10","40","30","120","72","22","[""Asian""]","No","Male","2008959","null","null","","","","clear_screen","","","","","","","","","","","","","","","","","","","","","","","","","",""
"","","","","","canvas-keyboard-response","277","278674","0.0-12.0-0.53","2d_cat_multi_stim_exp1","2022-4-29","14:11:22","25","75","3","9","10","40","30","120","72","22","[""Asian""]","No","Male","2008959","null","null","","","","fixation","","","","","","","","","","","","","","","","","","","","","","","","","",""
"","","","","","canvas-keyboard-response","278","279183","0.0-12.0-1.53","2d_cat_multi_stim_exp1","2022-4-29","14:11:22","25","75","3","9","10","40","30","120","72","22","[""Asian""]","No","Male","2008959","null","null","","","","clear_screen","","","","","","","","","","","","","","","","","","","","","","","","","",""
"","","","","","canvas-keyboard-response","279","279845","0.0-12.0-2.53","2d_cat_multi_stim_exp1","2022-4-29","14:11:22","25","75","3","9","10","40","30","120","72","22","[""Asian""]","No","Male","2008959","651","u","learn","","","learn_trial","25","75","in","1","1","","","","","","","","","","","","","","","","","","","","",""
"","","","","","canvas-keyboard-response","280","280354","0.0-12.0-3.53","2d_cat_multi_stim_exp1","2022-4-29","14:11:22","25","75","3","9","10","40","30","120","72","22","[""Asian""]","No","Male","2008959","null","null","learn_feedback","","","learn_feedback","25","75","in","","","","","","","","","","","","","","","","","","","","","","",""
"","","","","","canvas-keyboard-response","281","280420","0.0-12.0-4.53","2d_cat_multi_stim_exp1","2022-4-29","14:11:22","25","75","3","9","10","40","30","120","72","22","[""Asian""]","No","Male","2008959","null","null","","","","clear_screen","","","","","","","","","","","","","","","","","","","","","","","","","",""
"","","","","","canvas-keyboard-response","282","280929","0.0-12.0-0.54","2d_cat_multi_stim_exp1","2022-4-29","14:11:22","25","75","3","9","10","40","30","120","72","22","[""Asian""]","No","Male","2008959","null","null","","","","fixation","","","","","","","","","","","","","","","","","","","","","","","","","",""
"","","","","","canvas-keyboard-response","283","281438","0.0-12.0-1.54","2d_cat_multi_stim_exp1","2022-4-29","14:11:22","25","75","3","9","10","40","30","120","72","22","[""Asian""]","No","Male","2008959","null","null","","","","clear_screen","","","","","","","","","","","","","","","","","","","","","","","","","",""
"","","","","","canvas-keyboard-response","284","281958","0.0-12.0-2.54","2d_cat_multi_stim_exp1","2022-4-29","14:11:22","25","75","3","9","10","40","30","120","72","22","[""Asian""]","No","Male","2008959","509","u","learn","","","learn_trial","25","75","in","1","1","","","","","","","","","","","","","","","","","","","","",""
"","","","","","canvas-keyboard-response","285","282467","0.0-12.0-3.54","2d_cat_multi_stim_exp1","2022-4-29","14:11:22","25","75","3","9","10","40","30","120","72","22","[""Asian""]","No","Male","2008959","null","null","learn_feedback","","","learn_feedback","25","75","in","","","","","","","","","","","","","","","","","","","","","","",""
"","","","","","canvas-keyboard-response","286","282526","0.0-12.0-4.54","2d_cat_multi_stim_exp1","2022-4-29","14:11:22","25","75","3","9","10","40","30","120","72","22","[""Asian""]","No","Male","2008959","null","null","","","","clear_screen","","","","","","","","","","","","","","","","","","","","","","","","","",""
"","","","","","canvas-keyboard-response","287","283035","0.0-12.0-0.55","2d_cat_multi_stim_exp1","2022-4-29","14:11:22","25","75","3","9","10","40","30","120","72","22","[""Asian""]","No","Male","2008959","null","null","","","","fixation","","","","","","","","","","","","","","","","","","","","","","","","","",""
"","","","","","canvas-keyboard-response","288","283545","0.0-12.0-1.55","2d_cat_multi_stim_exp1","2022-4-29","14:11:22","25","75","3","9","10","40","30","120","72","22","[""Asian""]","No","Male","2008959","null","null","","","","clear_screen","","","","","","","","","","","","","","","","","","","","","","","","","",""
"","","","","","canvas-keyboard-response","289","284061","0.0-12.0-2.55","2d_cat_multi_stim_exp1","2022-4-29","14:11:22","25","75","3","9","10","40","30","120","72","22","[""Asian""]","No","Male","2008959","506","i","learn","","","learn_trial","20","40","out","0","1","","","","","","","","","","","","","","","","","","","","",""
"","","","","","canvas-keyboard-response","290","284571","0.0-12.0-3.55","2d_cat_multi_stim_exp1","2022-4-29","14:11:22","25","75","3","9","10","40","30","120","72","22","[""Asian""]","No","Male","2008959","null","null","learn_feedback","","","learn_feedback","20","40","out","","","","","","","","","","","","","","","","","","","","","","",""
"","","","","","canvas-keyboard-response","291","284630","0.0-12.0-4.55","2d_cat_multi_stim_exp1","2022-4-29","14:11:22","25","75","3","9","10","40","30","120","72","22","[""Asian""]","No","Male","2008959","null","null","","","","clear_screen","","","","","","","","","","","","","","","","","","","","","","","","","",""
"","","","","","canvas-keyboard-response","292","285139","0.0-12.0-0.56","2d_cat_multi_stim_exp1","2022-4-29","14:11:22","25","75","3","9","10","40","30","120","72","22","[""Asian""]","No","Male","2008959","null","null","","","","fixation","","","","","","","","","","","","","","","","","","","","","","","","","",""
"","","","","","canvas-keyboard-response","293","285649","0.0-12.0-1.56","2d_cat_multi_stim_exp1","2022-4-29","14:11:22","25","75","3","9","10","40","30","120","72","22","[""Asian""]","No","Male","2008959","null","null","","","","clear_screen","","","","","","","","","","","","","","","","","","","","","","","","","",""
"","","","","","canvas-keyboard-response","294","286445","0.0-12.0-2.56","2d_cat_multi_stim_exp1","2022-4-29","14:11:22","25","75","3","9","10","40","30","120","72","22","[""Asian""]","No","Male","2008959","787","i","learn","","","learn_trial","30","30","out","0","1","","","","","","","","","","","","","","","","","","","","",""
"","","","","","canvas-keyboard-response","295","286955","0.0-12.0-3.56","2d_cat_multi_stim_exp1","2022-4-29","14:11:22","25","75","3","9","10","40","30","120","72","22","[""Asian""]","No","Male","2008959","null","null","learn_feedback","","","learn_feedback","30","30","out","","","","","","","","","","","","","","","","","","","","","","",""
"","","","","","canvas-keyboard-response","296","287014","0.0-12.0-4.56","2d_cat_multi_stim_exp1","2022-4-29","14:11:22","25","75","3","9","10","40","30","120","72","22","[""Asian""]","No","Male","2008959","null","null","","","","clear_screen","","","","","","","","","","","","","","","","","","","","","","","","","",""
"","","","","","canvas-keyboard-response","297","287527","0.0-12.0-0.57","2d_cat_multi_stim_exp1","2022-4-29","14:11:22","25","75","3","9","10","40","30","120","72","22","[""Asian""]","No","Male","2008959","null","null","","","","fixation","","","","","","","","","","","","","","","","","","","","","","","","","",""
"","","","","","canvas-keyboard-response","298","288036","0.0-12.0-1.57","2d_cat_multi_stim_exp1","2022-4-29","14:11:22","25","75","3","9","10","40","30","120","72","22","[""Asian""]","No","Male","2008959","null","null","","","","clear_screen","","","","","","","","","","","","","","","","","","","","","","","","","",""
